timestamp_ms,ax,ay,az,gx,gy,gz,speed_kmh,label
0,3.3949,3.8934,12.7301,-0.0349,0.0461,-0.0284,5.3,0
20,3.4155,3.8182,12.9069,-0.0439,0.0441,-0.0282,5.5,0
40,3.3504,3.8474,12.7578,-0.0324,0.046,-0.034,5.7,0
60,3.3511,3.8108,12.8796,-0.0387,0.0276,-0.0233,5.9,0
80,3.3958,3.777,12.7733,-0.0324,0.0356,-0.018,6.1,0
100,3.3383,3.7131,12.7838,-0.0217,0.042,-0.0159,6.3,0
120,3.3496,3.6369,12.8362,-0.0259,0.0253,-0.0212,6.5,0
140,3.3185,3.8063,12.9493,-0.0457,0.0459,-0.0291,6.7,0
160,3.261,3.6901,12.8922,-0.0259,0.0373,-0.0152,6.9,0
180,3.2644,3.7867,12.8097,-0.0172,0.0537,-0.0093,7.1,0
200,3.2488,3.7614,12.8674,-0.0165,0.0336,-0.0099,7.3,0
220,3.266,3.6892,12.8888,-0.0148,0.0383,-0.0002,7.5,0
240,3.2745,3.6806,12.8709,-0.0277,0.0361,-0.0087,7.6,0
260,3.2693,3.6235,12.9212,-0.0222,0.0373,-0.0177,7.8,0
280,3.3383,3.6795,12.9171,-0.0224,0.03,0.0058,8.0,0
300,3.2916,3.6338,12.8205,-0.0148,0.0411,0.0103,8.2,0
320,3.1746,3.5693,12.9641,-0.0058,0.0345,-0.0244,8.4,0
340,3.2299,3.5189,12.9401,-0.0096,0.0462,-0.016,8.6,0
360,3.1417,3.5524,12.913,-0.0132,0.0518,0.0046,8.8,0
380,3.2074,3.6112,12.9396,-0.01,0.0409,-0.0063,9.0,0
400,3.168,3.5196,12.9845,-0.0008,0.0363,-0.0074,9.2,0
420,3.1838,3.5052,12.977,-0.0094,0.0369,-0.0052,9.4,0
440,3.2063,3.5759,12.9624,0.0024,0.0493,0.0074,9.6,0
460,3.1473,3.4852,12.9368,0.005,0.0208,0.0284,9.8,0
480,3.1429,3.4287,12.9337,0.007,0.0403,0.0133,10.0,0
500,3.1597,3.5096,13.0012,-0.0051,0.0231,0.0234,10.2,0
520,3.0836,3.5406,13.04,-0.0156,0.019,0.0282,10.3,0
540,2.9941,3.4988,13.0658,0.0205,0.0194,0.024,10.5,0
560,3.2218,3.4565,13.0597,0.0123,0.0425,0.021,10.7,0
580,3.0103,3.4511,13.0351,-0.0048,0.0483,0.017,10.9,0
600,3.089,3.4458,12.9282,0.0151,0.0267,0.0446,11.1,0
620,3.101,3.2953,13.0744,0.0307,0.0498,0.0222,11.3,0
640,3.1299,3.3197,13.0989,0.0156,0.0348,0.0173,11.5,0
660,3.0274,3.3251,13.1186,0.0487,0.0414,0.0382,11.7,0
680,3.1374,3.2231,13.0897,0.0217,0.0292,0.0193,11.9,0
700,3.084,3.3643,13.122,0.0462,0.024,0.0273,12.1,0
720,3.0288,3.3326,13.0691,0.0241,0.0138,0.0421,12.3,0
740,3.0465,3.2801,13.0578,0.0338,0.0532,0.0402,12.5,0
760,3.067,3.2028,13.1163,0.0213,0.011,0.0267,12.7,0
780,3.1101,3.2481,13.1802,0.0418,0.0331,0.0276,12.8,0
800,2.9951,3.1434,13.2077,0.044,0.0293,0.03,13.0,0
820,2.9883,3.1582,13.1075,0.0556,0.0234,0.0456,13.2,0
840,3.0174,3.212,13.1852,0.0291,0.0188,0.0307,13.4,0
860,2.9672,3.2407,13.3188,0.0508,0.0231,0.0361,13.6,0
880,2.9175,3.2363,13.1943,0.0388,0.0367,0.0559,13.8,0
900,2.9726,3.2526,13.1362,0.0469,0.0413,0.0392,14.0,0
920,2.9194,3.236,13.1213,0.0617,0.0144,0.0368,14.2,0
940,2.8568,3.0945,13.2338,0.0731,0.0377,0.0575,14.4,0
960,2.8383,3.0273,13.1433,0.0742,0.0422,0.0428,14.6,0
980,2.8957,3.0764,13.1672,0.0597,0.0088,0.0665,14.8,0
1000,2.8606,3.1329,13.3319,0.0501,0.0203,0.0715,15.0,0
1020,2.9068,3.0925,13.2631,0.0568,0.0481,0.0728,14.8,0
1040,2.9426,3.0524,13.2993,0.0921,0.0268,0.0525,14.7,0
1060,2.8885,3.0091,13.1986,0.05,0.0303,0.0665,14.6,0
1080,2.8747,3.0777,13.2292,0.0712,0.0313,0.0405,14.5,0
1100,2.8799,2.9885,13.282,0.0514,0.0266,0.0505,14.4,0
1120,2.8681,3.123,13.225,0.0777,0.0407,0.0485,14.3,0
1140,2.9689,2.981,13.2685,0.0343,0.0219,0.0518,14.1,0
1160,2.8947,2.9559,13.1528,0.0414,0.0188,0.0546,14.0,0
1180,2.9089,2.8804,13.1622,0.0495,0.0216,0.0521,13.9,0
1200,2.8796,2.9799,13.2492,0.0662,0.0221,0.0569,13.8,0
1220,2.8413,3.0072,13.1578,0.0329,0.0249,0.0743,13.7,0
1240,2.9045,2.9064,13.1434,0.0301,0.016,0.0505,13.5,0
1260,2.8355,2.937,13.1971,0.0431,0.0357,0.0676,13.4,0
1280,2.8093,2.8343,13.1604,0.0161,0.0458,0.0498,13.3,0
1300,2.8824,2.8343,13.176,0.0293,0.0229,0.0798,13.2,0
1320,2.8113,2.8907,13.163,0.0231,0.0253,0.039,13.1,0
1340,2.7583,2.8376,13.1093,0.0317,0.0268,0.0675,12.9,0
1360,2.7975,2.8405,13.2085,0.0142,0.0159,0.0504,12.8,0
1380,2.7941,2.8638,13.0128,0.0515,0.0271,0.0434,12.7,0
1400,2.7676,2.8403,13.1611,0.0166,0.0259,0.0656,12.6,0
1420,2.9076,2.8779,13.0878,0.0276,0.0103,0.0605,12.5,0
1440,2.7703,2.8069,13.1818,0.0187,0.0251,0.0491,12.3,0
1460,2.824,2.7634,13.1503,0.0119,0.0398,0.0557,12.2,0
1480,2.7709,2.7432,13.1242,0.0311,0.0329,0.0652,12.1,0
1500,2.708,2.5971,13.1377,-0.0011,0.0201,0.0561,12.0,1
1520,2.7846,2.7168,13.1109,0.024,0.0093,0.0486,11.9,1
1540,2.8483,2.7233,13.0761,0.0164,0.0259,0.055,11.8,1
1560,2.7811,2.7033,13.1584,-0.0008,0.0211,0.0492,11.6,1
1580,2.7871,2.6064,13.0733,0.0004,0.0122,0.0486,11.5,1
1600,2.774,2.5853,13.1191,0.0077,0.0318,0.0601,11.4,1
1620,2.7709,2.7348,13.0096,0.0071,0.0054,0.0566,11.3,1
1640,2.7595,2.6572,13.0669,-0.0046,0.0411,0.0621,11.2,1
1660,2.6662,2.7325,13.0283,-0.0025,0.0151,0.045,11.0,1
1680,2.7455,2.5656,12.9764,-0.0009,0.0417,0.0535,10.9,1
1700,2.7785,2.5914,13.0392,-0.0038,0.0143,0.0743,10.8,1
1720,2.7979,2.6054,13.0579,-0.0071,0.0233,0.0647,10.7,1
1740,2.7302,2.6339,13.0613,-0.0194,0.0199,0.0552,10.6,1
1760,2.6922,2.5326,13.0869,-0.0161,0.0358,0.0617,10.4,1
1780,2.7164,2.4896,12.9701,-0.0136,0.036,0.0339,10.3,1
1800,2.6595,2.5623,12.9656,-0.0099,0.0079,0.0463,10.2,1
1820,2.7621,2.5982,12.9171,-0.0118,0.025,0.0662,10.1,1
1840,2.7188,2.5364,12.996,-0.0237,0.024,0.0446,10.0,1
1860,2.7228,2.4883,12.982,-0.022,0.0241,0.0603,9.8,1
1880,2.7932,2.5275,12.8882,-0.0382,0.0194,0.0569,9.7,1
1900,2.7396,2.544,12.9556,-0.0224,0.0373,0.0538,9.6,1
1920,2.6721,2.5744,12.8983,-0.0185,0.0175,0.0479,9.5,1
1940,2.6595,2.3834,12.8967,-0.0371,0.0335,0.0579,9.4,1
1960,2.6767,2.4829,12.9144,-0.0544,0.0208,0.0484,9.3,1
1980,2.6445,2.4989,12.9456,-0.0216,0.0194,0.0733,9.1,1
2000,2.6351,2.4644,12.9474,-0.0179,0.0263,0.0625,9.0,1
2020,2.7454,2.4684,13.0113,-0.0205,0.0195,0.0473,9.1,1
2040,2.6074,2.4591,12.9566,0.0001,-0.0002,0.0478,9.1,1
2060,2.6487,2.4522,12.9925,-0.0343,0.0163,0.0594,9.2,1
2080,2.6913,2.4901,12.9755,-0.0152,0.0176,0.0655,9.2,1
2100,2.6723,2.6086,12.9687,-0.0444,0.0163,0.0426,9.3,1
2120,2.6912,2.6238,13.0427,-0.0119,0.0075,0.0744,9.3,1
2140,2.5556,2.6041,13.0118,-0.0182,0.0172,0.0515,9.4,1
2160,2.658,2.5583,13.1404,-0.0062,-0.0013,0.048,9.4,1
2180,2.7746,2.5701,13.0625,-0.0043,0.0248,0.0491,9.5,1
2200,2.6467,2.6662,13.167,-0.0153,-0.0056,0.0567,9.5,1
2220,2.7047,2.6611,13.1267,-0.0331,0.0253,0.0514,9.6,1
2240,2.7113,2.7606,13.1972,-0.008,0.008,0.0608,9.6,1
2260,2.6124,2.7278,13.1152,0.0163,0.0021,0.0552,9.7,1
2280,2.7007,2.802,13.2097,0.0058,0.0173,0.0586,9.7,1
2300,2.6665,2.7098,13.2218,0.0081,0.006,0.0619,9.7,1
2320,2.6796,2.7958,13.289,0.0122,0.004,0.0584,9.8,1
2340,2.6997,2.8238,13.296,0.0024,-0.0177,0.044,9.8,1
2360,2.6699,2.8107,13.2804,-0.0121,0.004,0.0404,9.9,1
2380,2.6811,2.8254,13.3033,0.0021,0.0056,0.0567,9.9,1
2400,2.688,2.9499,13.2545,0.0043,0.0031,0.0495,10.0,1
2420,2.7346,2.9065,13.389,0.0146,-0.003,0.0651,10.0,1
2440,2.7197,2.9891,13.3289,0.0202,-0.0055,0.0715,10.1,1
2460,2.6973,3.0839,13.3815,0.0249,-0.0243,0.0852,10.1,1
2480,2.6758,2.947,13.4083,0.0283,-0.0172,0.0647,10.2,1
2500,2.652,3.0217,13.4233,0.0286,-0.0272,0.0557,10.2,1
2520,2.7164,3.0883,13.5233,0.044,-0.0218,0.0574,10.3,1
2540,2.7314,3.1152,13.4865,0.0197,-0.0052,0.0707,10.3,1
2560,2.7182,3.1273,13.4726,0.0255,-0.032,0.0585,10.4,1
2580,2.6241,3.0897,13.6206,0.0053,-0.0136,0.0604,10.4,1
2600,2.729,3.1675,13.5962,0.0451,-0.002,0.0726,10.5,1
2620,2.6576,3.1411,13.4994,0.0319,-0.0124,0.0834,10.5,1
2640,2.624,3.2993,13.6038,0.0261,-0.0049,0.0755,10.6,1
2660,2.7738,3.3776,13.5583,0.0528,-0.0351,0.0552,10.6,1
2680,2.6837,3.1749,13.627,0.0342,-0.0301,0.0539,10.7,1
2700,2.7315,3.2694,13.6794,0.0463,-0.0126,0.0477,10.7,1
2720,2.6996,3.311,13.6127,0.0328,-0.037,0.0704,10.8,1
2740,2.7451,3.3373,13.7356,0.0329,-0.0411,0.0707,10.8,1
2760,2.7498,3.313,13.6918,0.0348,-0.032,0.0633,10.9,1
2780,2.5976,3.4149,13.7894,0.0413,-0.0234,0.0477,10.9,1
2800,2.6971,3.4227,13.6841,0.0632,-0.0359,0.0421,11.0,1
2820,2.7334,3.3772,13.8404,0.0437,-0.028,0.0628,11.0,1
2840,2.6186,3.5184,13.771,0.0505,-0.046,0.0727,11.1,1
2860,2.7659,3.4697,13.8799,0.0667,-0.0367,0.0635,11.1,1
2880,2.7862,3.5274,13.8427,0.0518,-0.0572,0.0824,11.2,1
2900,2.7582,3.5327,13.874,0.0617,-0.0246,0.0754,11.2,1
2920,2.6511,3.5347,13.8212,0.069,-0.0401,0.0714,11.3,1
2940,2.6969,3.5257,13.9659,0.0601,-0.0481,0.0709,11.3,1
2960,2.8,3.6013,13.9257,0.0612,-0.0426,0.0868,11.4,1
2980,2.6488,3.5931,13.8663,0.0787,-0.0466,0.0658,11.4,1
3000,2.6935,3.7057,14.0256,0.0777,-0.0531,0.0615,11.5,1
3020,2.7531,3.6126,13.9449,0.0623,-0.0368,0.0633,11.3,1
3040,2.7025,3.6479,13.9293,0.0783,-0.053,0.0547,11.2,1
3060,2.7526,3.6279,13.8383,0.0842,-0.0481,0.065,11.1,1
3080,2.7129,3.4985,13.8271,0.06,-0.0382,0.0794,10.9,1
3100,2.7687,3.4969,13.9187,0.0675,-0.0588,0.0753,10.8,1
3120,2.8171,3.494,13.8445,0.0498,-0.0371,0.069,10.7,1
3140,2.8152,3.503,13.8578,0.0549,-0.0416,0.0514,10.6,1
3160,2.8302,3.572,13.8538,0.0758,-0.041,0.0653,10.4,1
3180,2.7415,3.4475,13.7206,0.0612,-0.0442,0.0734,10.3,1
3200,2.896,3.3779,13.6669,0.0542,-0.0356,0.0819,10.2,1
3220,2.7978,3.3577,13.677,0.0597,-0.0453,0.0698,10.0,1
3240,2.8341,3.4955,13.6321,0.048,-0.0466,0.0623,9.9,1
3260,2.8758,3.3211,13.635,0.082,-0.0311,0.0791,9.8,1
3280,2.7966,3.347,13.6597,0.0577,-0.0339,0.0552,9.6,1
3300,2.8158,3.2838,13.6503,0.0459,-0.0424,0.0673,9.5,1
3320,2.9351,3.313,13.6011,0.049,-0.0427,0.0625,9.4,1
3340,2.9097,3.2192,13.5281,0.0473,-0.0539,0.0601,9.3,1
3360,2.9982,3.2803,13.5904,0.0396,-0.0374,0.0773,9.1,1
3380,2.9038,3.2789,13.4924,0.0625,-0.032,0.0599,9.0,1
3400,2.8544,3.1403,13.5412,0.0687,-0.0609,0.0689,8.9,1
3420,2.9809,3.2992,13.4553,0.0387,-0.0432,0.0528,8.7,1
3440,2.9198,3.1055,13.377,0.05,-0.052,0.073,8.6,1
3460,2.9744,3.0908,13.3727,0.0484,-0.0558,0.0749,8.5,1
3480,2.926,3.1205,13.2693,0.0427,-0.0474,0.0743,8.4,1
3500,2.9065,3.0108,13.3364,0.0571,-0.0262,0.0723,8.2,1
3520,3.0811,3.107,13.3388,0.0353,-0.0416,0.0659,8.1,1
3540,3.0336,2.9673,13.2674,0.0503,-0.0293,0.0603,8.0,1
3560,3.0591,2.9822,13.2509,0.0525,-0.0374,0.0733,7.8,1
3580,2.9901,2.9497,13.2104,0.0416,-0.0291,0.0765,7.7,1
3600,3.0404,3.0227,13.1328,0.0549,-0.0345,0.0474,7.6,1
3620,3.0834,2.9713,13.1419,0.0509,-0.0479,0.0625,7.4,1
3640,3.0744,2.9434,13.1558,0.0317,-0.0509,0.073,7.3,1
3660,3.0594,2.8826,13.1632,0.033,-0.0227,0.0599,7.2,1
3680,3.1411,2.8085,13.1677,0.0418,-0.0337,0.0585,7.1,1
3700,3.1235,2.8042,13.0881,0.0488,-0.0276,0.0421,6.9,1
3720,3.0459,2.8707,13.0937,0.0199,-0.0288,0.0765,6.8,1
3740,3.204,2.8141,13.0829,0.0223,-0.0495,0.0655,6.7,1
3760,3.1136,2.8302,13.0326,0.0378,-0.0384,0.0694,6.5,1
3780,3.1242,2.7424,13.0836,0.0238,-0.0471,0.0782,6.4,1
3800,3.2233,2.6965,12.9876,0.0327,-0.0513,0.0649,6.3,1
3820,3.1414,2.6852,12.9292,0.0167,-0.0538,0.0891,6.1,1
3840,3.1617,2.712,12.9735,0.0281,-0.0082,0.052,6.0,1
3860,3.202,2.7096,12.8747,0.0352,-0.0408,0.0582,5.9,1
3880,3.1936,2.6469,12.9121,0.0111,-0.0356,0.0648,5.8,1
3900,3.1405,2.6266,12.8287,0.0282,-0.0336,0.0527,5.6,1
3920,3.2061,2.5954,12.7716,0.0238,-0.0326,0.0487,5.5,1
3940,3.1881,2.6228,12.7846,0.0104,-0.055,0.0804,5.4,1
3960,3.2976,2.6467,12.821,0.0253,-0.0244,0.0596,5.2,1
3980,3.3006,2.5056,12.8207,0.0266,-0.0301,0.062,5.1,1
4000,3.2281,2.5189,12.7711,0.0191,-0.0183,0.0575,5.0,1
4020,3.1844,2.5519,12.7416,0.0265,-0.014,0.0615,5.1,1
4040,3.254,2.4502,12.6314,0.0181,-0.0293,0.0352,5.2,1
4060,3.1616,2.5185,12.637,0.0074,-0.0414,0.0623,5.3,1
4080,3.2671,2.6286,12.5657,0.0277,-0.0253,0.0586,5.5,1
4100,3.2237,2.4494,12.583,0.0108,-0.0265,0.0658,5.6,1
4120,3.2579,2.563,12.5441,0.0193,-0.022,0.0562,5.7,1
4140,3.1322,2.5913,12.5428,0.0261,-0.0255,0.0711,5.8,1
4160,3.2384,2.5211,12.4642,0.0202,-0.0214,0.0642,5.9,1
4180,3.1607,2.5222,12.4245,-0.0067,0.002,0.0799,6.1,1
4200,3.1772,2.582,12.4375,0.0066,-0.0414,0.0667,6.2,1
4220,3.1213,2.7103,12.4382,0.0203,-0.0101,0.0781,6.3,1
4240,2.9994,2.6028,12.3935,0.0123,-0.017,0.0712,6.4,1
4260,3.1324,2.6665,12.301,0.0137,0.0129,0.0759,6.5,1
4280,3.1296,2.6519,12.2813,0.007,0.0053,0.0731,6.7,1
4300,3.1089,2.6804,12.3253,0.0079,-0.0013,0.0736,6.8,1
4320,3.0319,2.7609,12.2325,0.0016,-0.0162,0.0749,6.9,1
4340,3.1266,2.6754,12.2493,0.0151,0.0038,0.0712,7.0,1
4360,3.1139,2.6237,12.1955,0.0174,0.0087,0.0657,7.1,1
4380,3.1425,2.6893,12.1623,0.0168,-0.0099,0.0753,7.3,1
4400,3.0496,2.7449,12.1941,0.0197,-0.0054,0.068,7.4,1
4420,2.9311,2.6652,12.1241,0.0075,0.0106,0.0535,7.5,1
4440,3.0222,2.6424,12.0593,0.0033,0.0117,0.0526,7.6,1
4460,3.0548,2.7156,12.1052,0.0059,0.0026,0.0612,7.7,1
4480,3.0073,2.7451,11.9935,0.0018,0.0039,0.069,7.8,1
4500,3.0357,2.7434,11.903,-0.0149,0.0093,0.0536,8.0,1
4520,3.0371,2.7804,12.0412,0.031,0.0044,0.0719,8.1,1
4540,2.959,2.7408,11.9368,-0.0057,0.0137,0.06,8.2,1
4560,2.9801,2.8069,11.8912,-0.0022,0.039,0.0706,8.3,1
4580,2.923,2.7667,11.8475,0.0128,0.0034,0.0562,8.4,1
4600,2.9161,2.8637,11.834,-0.0062,0.0204,0.074,8.6,1
4620,2.9599,2.8706,11.9084,-0.017,0.0309,0.0653,8.7,1
4640,2.929,2.7707,11.8705,0.0015,0.0116,0.0619,8.8,1
4660,2.9764,2.7897,11.7276,0.0054,0.0209,0.082,8.9,1
4680,2.8806,2.781,11.7387,-0.0151,0.0287,0.067,9.0,1
4700,2.8454,2.8304,11.6699,-0.0072,0.0225,0.0755,9.2,1
4720,2.8605,2.8339,11.6483,0.0053,0.0588,0.0819,9.3,1
4740,2.9084,2.8954,11.6287,0.011,0.043,0.0853,9.4,1
4760,2.9518,2.8422,11.5214,0.0046,0.0409,0.0582,9.5,1
4780,2.8773,2.7661,11.6187,-0.0237,0.0305,0.0782,9.6,1
4800,2.9001,2.8846,11.4506,-0.0095,0.0421,0.0727,9.8,1
4820,2.9042,2.8481,11.5136,-0.0052,0.0292,0.0649,9.9,1
4840,2.9259,2.8747,11.3723,-0.005,0.057,0.0671,10.0,1
4860,2.9537,2.9557,11.3613,0.0023,0.0428,0.0834,10.1,1
4880,2.8706,2.9471,11.4032,-0.0117,0.0721,0.0591,10.2,1
4900,2.8258,2.9075,11.3878,0.0064,0.043,0.0771,10.4,1
4920,2.8743,2.9557,11.3574,-0.0228,0.0475,0.0675,10.5,1
4940,2.9053,3.0071,11.3057,-0.0038,0.0731,0.0734,10.6,1
4960,2.8539,2.9493,11.2667,-0.0036,0.0604,0.0694,10.7,1
4980,2.8522,2.9916,11.2455,-0.005,0.0574,0.0503,10.8,1
5000,2.7817,2.9555,11.1922,0.0018,0.0633,0.0655,11.0,1
