timestamp_ms,ax,ay,az,gx,gy,gz,label
0,-0.1592,-0.0683,9.9087,0.0376,-0.0121,-0.014,0
20,-0.1165,0.1612,10.1487,-0.0134,-0.0859,-0.003,0
40,-0.1287,-0.0245,9.8081,0.0282,0.0351,0.0194,0
60,0.0157,-0.1078,9.7418,-0.0402,-0.0179,-0.0419,0
80,-0.1061,0.0762,9.6824,-0.0196,0.0173,0.0229,0
100,0.1599,0.0456,9.8435,0.0343,0.0602,0.0023,0
120,0.1045,-0.1332,9.7713,-0.0256,0.0198,0.0273,0
140,-0.2644,0.0637,9.3463,-0.0152,0.0595,0.0923,0
160,0.0494,-0.0308,10.0248,0.011,0.042,0.0257,0
180,0.119,-0.0335,9.9559,0.0408,-0.0336,0.014,0
200,-0.1298,0.0169,10.0087,-0.0332,-0.0011,-0.0417,0
220,-0.0084,0.0581,9.7389,-0.0464,0.012,-0.0687,0
240,-0.0347,0.1307,10.0616,-0.0194,-0.0048,-0.0075,0
260,0.2479,-0.1141,9.5126,-0.0217,0.0631,-0.032,0
280,-0.1462,-0.0731,10.0661,-0.0377,0.0336,0.0111,0
301,0.1243,-0.0992,9.789,-0.0385,-0.0085,-0.0048,0
321,0.1967,0.0079,9.5289,-0.0032,0.022,-0.0519,0
341,-0.0932,-0.0482,10.003,-0.0046,0.0062,0.0026,0
361,0.0983,-0.0106,9.7304,-0.0269,-0.0102,-0.0071,0
381,0.0101,0.1092,9.6432,0.0376,-0.0362,-0.0071,0
401,-0.0038,0.1682,9.9102,-0.0348,0.0039,0.0239,0
421,0.1917,-0.2605,9.9269,0.0059,-0.0222,0.0558,0
441,0.3192,-0.026,9.8309,-0.0008,-0.0115,0.0123,0
461,0.0068,0.0472,9.9659,-0.0252,0.0265,0.0419,0
481,0.1113,0.1014,9.8424,0.0361,0.0178,0.0144,0
501,0.1749,0.1351,9.8311,0.0127,0.036,0.028,0
521,-0.1323,-0.0662,9.7752,0.0296,0.0294,-0.002,0
541,0.0918,-0.1779,9.8921,-0.0032,0.0117,0.0204,0
561,-0.0135,-0.1704,9.9746,0.0145,0.0108,0.0593,0
581,-0.0414,0.0938,10.0171,0.0609,0.0297,-0.0168,0
602,0.1734,0.0485,9.6594,-0.0222,-0.0064,0.0082,0
622,0.0634,0.1924,9.6652,-0.0213,0.0309,0.0435,0
642,-0.0187,-0.1459,9.8098,0.0201,0.0453,0.011,0
662,0.079,-0.0253,9.884,-0.0183,-0.0088,-0.0348,0
682,0.0836,0.1803,10.0101,-0.0015,-0.0035,0.0279,0
702,0.0075,0.076,9.5648,-0.0042,-0.0195,-0.0274,0
722,0.1635,0.1004,9.7698,-0.0259,-0.0028,0.0184,0
742,-0.4051,0.1471,9.6039,-0.0146,-0.0582,0.0059,0
762,-0.1285,-0.0378,9.6785,-0.031,-0.0218,-0.0022,0
782,-0.0532,-0.0733,9.9434,0.0353,-0.0251,0.0467,0
802,-0.0994,-0.2702,9.7966,-0.0017,-0.0553,-0.0522,0
822,-0.0057,0.0575,9.655,0.0357,0.021,-0.0078,0
842,0.1841,-0.015,9.7285,0.0169,-0.0437,0.037,0
862,0.0265,0.0795,9.9078,0.014,0.0425,-0.0491,0
882,-0.1741,0.0242,9.9989,-0.014,-0.0312,-0.0094,0
903,-0.1584,0.2425,9.6862,-0.0111,-0.0561,0.0233,0
923,-0.0864,0.0499,9.7491,-0.0095,-0.0279,-0.0348,0
943,-0.0071,0.1175,10.104,0.0026,-0.0043,0.0125,0
963,-0.1412,0.2779,10.2502,0.0223,0.0091,0.004,0
983,0.1961,-0.3234,9.827,0.028,-0.0097,0.0081,0
1003,0.2404,-0.1761,9.9145,-0.0286,0.0403,-0.018,0
1023,-0.1809,-0.1014,10.1072,0.0298,0.0482,-0.0308,0
1043,-0.0593,0.2575,10.0341,-0.0279,0.0288,-0.0072,0
1063,0.2911,0.0982,9.9435,0.0158,0.0008,-0.0036,0
1083,-0.1846,-0.2873,9.7801,-0.0366,0.0021,-0.0229,0
1103,-0.2124,-0.2607,9.6121,0.0565,-0.0008,0.0794,0
1123,0.1449,-0.2494,9.7586,-0.0161,-0.0479,0.0332,0
1143,0.0127,0.1395,9.7702,0.0047,0.0698,0.0088,0
1163,0.043,-0.1958,9.7724,-0.0241,-0.0218,0.0026,0
1183,0.2102,-0.0888,10.1644,-0.0082,-0.0144,0.0297,0
1204,0.1153,0.1316,9.5454,-0.0368,-0.0574,-0.024,0
1224,0.1091,-0.2271,9.765,0.0343,-0.0241,0.066,0
1244,-0.2547,-0.0009,9.8777,0.0439,-0.0428,0.0065,0
1264,0.0733,-0.0596,9.774,0.0156,0.0047,-0.0133,0
1284,-0.1481,-0.0117,10.031,-0.0094,-0.0004,0.0072,0
1304,-0.0325,0.1102,9.5962,0.0001,0.0201,0.0346,0
1324,-0.0415,0.0996,9.9699,-0.0456,0.019,-0.0287,0
1344,0.2112,0.0555,9.4974,0.0154,0.0174,-0.0074,0
1364,-0.0653,0.0688,9.7725,0.0043,-0.0425,0.0319,0
1384,-0.0867,0.167,9.7701,-0.0084,-0.0087,-0.0139,0
1404,-0.0608,-0.0648,9.461,-0.0072,-0.0434,-0.0004,0
1424,0.1847,-0.1395,9.6629,-0.0414,0.0256,-0.0149,0
1444,-0.0187,-0.1917,9.8463,0.0009,0.0037,0.0141,0
1464,0.1544,0.1049,9.2655,-0.0527,-0.0211,-0.0497,0
1484,0.2835,-0.1837,9.7161,0.0021,-0.0502,0.0141,0
1505,0.0815,-0.171,10.1372,0.0168,-0.017,0.0648,0
1525,-0.0571,-0.2146,9.8309,-0.0415,0.0442,0.0294,0
1545,0.0209,-0.0415,9.8881,-0.0222,-0.0198,-0.0428,0
1565,0.1498,0.1592,9.9427,0.0004,0.0063,-0.0285,0
1585,0.0528,0.4633,9.8747,0.059,-0.0395,-0.0646,0
1605,-0.2177,-0.01,9.9388,0.0073,-0.0097,-0.0243,0
1625,0.1799,0.0322,9.9767,0.0064,-0.0216,-0.0147,0
1645,0.0657,-0.029,9.6952,0.0397,-0.0368,0.0189,0
1665,-0.3644,-0.1373,9.7037,0.0018,0.0016,-0.0353,0
1685,0.0689,-0.1964,9.8457,0.0344,0.0162,-0.0083,0
1705,-0.254,0.1436,10.0243,0.0079,0.0032,0.0037,0
1725,0.1329,-0.075,9.6858,0.0676,-0.0294,-0.0268,0
1745,-0.1115,-0.1873,9.8425,0.0279,-0.0102,0.0207,0
1765,-0.2904,-0.072,9.8918,-0.0353,0.0033,0.0198,0
1785,-0.1978,0.1343,9.6704,-0.001,-0.0072,-0.0577,0
1806,-0.12,0.2464,9.881,0.0453,0.0098,0.0231,0
1826,0.0207,-0.0433,9.4617,-0.0429,-0.0292,0.0037,0
1846,-0.0651,-0.0414,10.0328,0.0075,-0.0316,0.0322,0
1866,0.1771,0.0318,10.0009,0.037,0.0178,0.0313,0
1886,0.0017,0.0666,9.7671,-0.0308,0.0326,-0.0256,0
1906,-0.3281,-0.3084,9.9999,0.0057,0.0091,-0.0412,0
1926,0.0396,-0.1004,9.643,-0.0345,0.0284,0.0586,0
1946,-0.0875,-0.2876,10.0215,-0.0011,0.0139,0.0291,0
1966,-0.0575,0.2466,9.6165,-0.0235,0.0791,-0.0258,0
1986,0.1533,-0.0237,10.0099,-0.0294,0.0278,-0.0075,0
2006,-0.2536,-0.0073,9.687,0.0004,0.0463,-0.0266,0
2026,-0.0636,-0.0231,10.2804,-0.0275,-0.0136,0.0334,0
2046,-0.0973,0.0474,9.9159,-0.0093,-0.0183,-0.0212,0
2066,-0.0833,-0.1772,9.5367,0.0087,-0.0193,0.0049,0
2086,0.1049,0.0995,9.734,-0.0014,-0.0558,0.0478,0
2107,-0.0143,0.17,9.6729,-0.0341,0.0087,0.0219,0
2127,-0.0011,-0.0785,9.673,0.0291,0.0295,0.0391,0
2147,-0.2089,0.154,9.8632,-0.0306,-0.0001,0.0254,0
2167,-0.0132,-0.1705,10.1666,-0.0418,0.0399,0.0034,0
2187,-0.0907,-0.181,10.2862,-0.0522,0.0035,-0.0178,0
2207,-0.0734,-0.2512,9.5623,-0.0044,0.0357,0.0149,0
2227,-0.0875,-0.3934,9.7108,0.0372,-0.0038,0.0191,0
2247,0.1575,0.0588,9.8075,0.0362,0.0243,-0.0139,0
2267,-0.0018,0.0404,10.1401,0.005,-0.0013,-0.0152,0
2287,-0.0446,-0.0511,9.8111,0.0343,0.0368,-0.0509,0
2307,0.0261,0.0201,9.7673,-0.0121,0.0335,0.0097,0
2327,0.183,-0.0547,10.0383,-0.0151,-0.0162,0.0315,0
2347,-0.1041,-0.1455,9.9339,-0.0472,0.0378,0.027,0
2367,0.1249,0.1857,9.6845,0.0376,0.0003,-0.0098,0
2387,-0.1557,-0.1609,9.6048,0.0048,-0.0088,0.0131,0
2408,0.1507,0.2343,9.722,0.032,0.0019,0.0211,0
2428,0.0003,0.0898,9.7678,-0.0489,-0.018,0.0347,0
2448,0.0023,0.0737,9.7588,0.027,-0.0284,-0.0168,0
2468,-0.0942,-0.1127,9.8297,0.0231,0.0164,0.0493,0
2488,0.0077,-0.027,9.3159,-0.0474,0.0657,0.0174,0
2508,0.1904,-0.316,10.1153,0.0322,0.0362,-0.0041,0
2528,0.03,-0.0193,9.9479,0.0066,0.0123,-0.0449,0
2548,0.1071,0.0649,9.647,-0.0107,0.0337,-0.0044,0
2568,-0.0106,0.3523,9.7408,0.0142,-0.0136,-0.0106,0
2588,0.079,0.3287,9.8851,-0.021,-0.031,0.0225,0
2608,-0.0856,0.0431,9.9948,-0.0022,0.0551,-0.0044,0
2628,-0.0708,-0.0314,9.7027,-0.0028,0.0619,0.0253,0
2648,0.074,0.0492,9.6143,-0.0258,0.0068,0.0203,0
2668,0.2116,-0.1052,9.7922,0.0142,-0.0323,0.0266,0
2688,0.195,-0.0522,9.5606,-0.0088,0.0112,-0.0143,0
2709,0.1283,0.0192,9.8957,-0.0078,-0.0109,-0.0505,0
2729,0.3406,-0.1142,10.0426,-0.0055,-0.0455,-0.0549,0
2749,-0.263,-0.0141,9.8949,-0.0558,0.0127,-0.005,0
2769,0.2099,-0.0407,9.6949,-0.0216,0.0002,0.0418,0
2789,-0.1864,0.0538,10.1285,0.0871,0.0485,-0.0193,0
2809,0.0988,-0.0954,9.7333,0.0609,-0.0355,-0.0331,0
2829,-0.2968,-0.2077,9.4654,0.054,-0.011,0.0081,0
2849,-0.0937,-0.0274,9.8874,-0.0569,0.0039,0.0184,0
2869,-0.033,0.0739,10.0528,0.0258,0.071,0.0652,0
2889,-0.0441,-0.0019,9.9006,0.0007,0.0028,0.0483,0
2909,-0.0701,-0.3107,10.0232,0.0098,-0.0048,0.0507,0
2929,0.0357,-0.0944,9.7141,0.0066,0.0106,0.0163,0
2949,0.0204,-0.2803,10.0102,0.0327,-0.0366,0.0067,0
2969,0.0895,-0.0371,9.5771,-0.0287,-0.0715,0.0874,0
2989,-0.0084,0.1997,9.956,-0.0134,-0.0305,-0.0723,0
3010,-0.3833,-0.0687,9.4007,0.0225,-0.0343,-0.0173,0
3030,0.2723,0.1146,9.7845,0.0169,-0.022,0.0163,0
3050,0.085,-0.0864,9.8494,0.0075,-0.0088,0.0577,0
3070,0.2009,0.3258,9.6001,-0.0376,-0.0441,0.0083,0
3090,-0.2009,0.0191,9.853,0.054,0.0075,-0.0214,0
3110,0.0739,-0.0493,9.7919,-0.0268,-0.0015,-0.0025,0
3130,-0.0613,-0.0647,10.1856,-0.0005,-0.0389,0.0105,0
3150,0.091,-0.015,9.9299,-0.0093,-0.009,-0.0122,0
3170,0.3024,0.1639,10.0697,-0.0125,-0.027,0.036,0
3190,-0.0728,-0.0664,9.9078,0.033,0.0356,0.0065,0
3210,-0.2532,-0.0889,9.7607,0.0314,0.0182,-0.0422,0
3230,0.0324,-0.0991,9.7779,-0.0371,-0.0185,0.0357,0
3250,0.0502,0.2498,9.9127,0.0091,-0.0181,-0.0089,0
3270,-0.2172,-0.0594,9.9614,-0.0126,-0.0188,-0.0042,0
3290,0.0363,-0.1807,9.8631,-0.0062,0.0142,-0.0209,0
3311,0.1302,-0.2303,9.7463,-0.0213,-0.0145,-0.0325,0
3331,-0.0665,-0.0519,10.0136,-0.0135,-0.0512,0.0278,0
3351,0.1667,0.0434,10.3736,0.0367,0.0305,0.0209,0
3371,0.0622,0.1774,9.6601,0.0665,-0.023,-0.0539,0
3391,-0.1188,-0.2762,10.2769,0.0501,0.014,-0.0054,0
3411,-0.1924,0.1287,9.9585,0.0266,0.0254,0.0038,0
3431,0.1399,-0.0191,9.3715,0.0616,0.0291,-0.0267,0
3451,0.0804,-0.1306,9.6292,-0.0334,-0.0033,0.0047,0
3471,0.0193,0.0577,10.1039,0.0077,0.0037,0.0127,0
3491,0.0754,-0.1206,9.8949,-0.0182,-0.0315,0.0254,0
3511,-0.1605,-22.0169,9.4412,2.4955,0.0326,0.0076,1
3531,7.6787,-20.6431,14.79,2.3275,-0.061,0.8749,1
3551,14.6139,-18.2892,18.3104,1.9803,0.0248,1.5382,1
3571,19.8584,-15.7268,21.5157,1.6226,-0.0524,2.237,1
3591,24.2214,-11.644,23.0711,1.1099,0.0449,2.7288,1
3612,26.9377,-8.8436,22.8503,0.5916,0.0207,3.1412,1
3632,28.0983,-4.9585,21.2922,0.1414,0.002,3.3715,1
3652,28.0761,-0.9531,19.4532,-0.4079,-0.0163,3.5737,1
3672,26.7713,2.0304,16.115,-0.8393,-0.0352,3.6103,1
3692,24.2565,5.4486,12.977,-1.0922,-0.0127,3.6065,1
3712,21.0502,7.5972,9.0267,-1.3558,0.0313,3.3658,1
3732,17.2663,9.58,6.022,-1.4624,0.025,3.1301,1
3752,12.3547,10.8468,3.7544,-1.4912,-0.0062,2.7411,1
3772,8.112,11.6833,2.1583,-1.4398,0.0123,2.352,1
3792,3.0366,11.9188,1.1757,-1.2808,-0.0044,1.9796,1
3812,-1.1297,11.4541,1.385,-1.0417,-0.0603,1.5257,1
3832,-5.24,10.6935,2.3366,-0.7366,0.0295,1.0588,1
3852,-8.4628,9.4249,3.6455,-0.4239,-0.011,0.5551,1
3872,-11.1925,7.8418,5.6651,-0.1208,0.0023,0.1721,1
3892,-13.1935,5.7864,8.0133,0.2174,0.0321,-0.2022,1
3913,-14.3515,4.2387,10.4894,0.4551,-0.0347,-0.5825,1
3933,-15.0386,2.1858,12.6442,0.6503,0.0042,-0.9075,1
3953,-14.7843,0.3279,13.7891,0.7693,0.0256,-1.1565,1
3973,-14.0798,-1.3256,15.2958,0.7721,0.0523,-1.2893,1
3993,-12.6421,-3.1951,15.4075,0.8378,-0.0081,-1.5694,1
4013,-10.8037,-4.2725,15.3107,0.8495,0.025,-1.6703,1
4033,-8.5369,-5.4528,14.6114,0.7642,-0.0463,-1.667,1
4053,-6.1309,-6.0064,13.4909,0.6779,-0.0296,-1.6599,1
4073,-3.7076,-6.3913,12.1393,0.5053,0.0299,-1.5878,1
4093,-0.9901,-6.564,10.6703,0.293,-0.0049,-1.4885,1
4113,0.9203,-6.029,9.0457,0.0698,0.0301,-1.4048,1
4133,2.9609,-5.8296,7.7751,0.0054,0.0147,-1.2222,1
4153,5.0659,-4.9344,6.4334,-0.1772,-0.021,-0.9377,1
4173,6.4455,-4.0491,6.0754,-0.3162,-0.0118,-0.8025,1
4193,7.0185,-2.7835,5.8912,-0.4569,-0.0381,-0.5584,1
4214,7.9581,-2.0885,6.2148,-0.5149,0.0167,-0.4232,1
4234,8.3672,-0.7643,6.577,-0.4937,0.0354,-0.1666,1
4254,7.7659,0.0532,7.7623,-0.5229,-0.0211,0.0792,1
4274,7.3271,1.127,8.5901,-0.4957,0.0248,0.2152,1
4294,6.2864,1.853,9.248,-0.4309,-0.0159,0.3544,1
4314,5.56,2.5943,10.5185,-0.3074,0.0022,0.475,1
4334,4.3328,2.9528,11.5207,-0.2236,0.0227,0.586,1
4354,2.892,3.4118,11.8245,-0.134,0.0632,0.6586,1
4374,1.6446,3.5366,11.9651,0.0352,-0.0213,0.7091,1
4394,0.4292,3.3225,12.4998,0.0777,-0.027,0.8095,1
4414,-1.0169,3.2652,12.1295,0.1964,0.0539,0.7561,1
4434,-2.2119,2.5609,11.7396,0.243,-0.0178,0.724,1
4454,-3.2092,2.6382,11.1727,0.3224,-0.0158,0.725,1
4474,-3.4366,1.8993,10.7712,0.2915,0.0029,0.6467,1
4494,-4.338,1.4487,10.017,0.3343,-0.0154,0.5489,1
4515,-4.3019,0.872,9.0685,0.2942,-0.0159,0.5656,1
4535,-4.1862,0.5035,9.1108,0.2696,-0.0214,0.4448,1
4555,-4.2208,-0.3484,8.268,0.1878,-0.0027,0.3002,1
4575,-3.9379,-0.7012,8.4375,0.1643,-0.0006,0.1965,1
4595,-3.3134,-0.9674,8.3883,0.1331,-0.0399,0.1289,1
4615,-2.9424,-1.4721,8.1903,0.0233,0.0684,0.036,1
4635,-2.4682,-1.6227,8.4775,-0.0008,-0.0031,0.0451,1
4655,-1.5829,-1.7041,8.7906,-0.074,0.0547,-0.166,1
4675,-0.77,-1.9753,9.1833,-0.1011,0.0275,-0.1647,1
4695,0.0237,-1.7334,9.71,-0.1517,0.0291,-0.2278,1
4715,0.3468,-0.3043,9.8564,-0.0407,0.0103,-0.0161,1
4735,-0.0096,0.0399,9.8036,0.0096,-0.0145,-0.0803,1
4755,-0.196,-0.0375,9.3372,-0.0164,-0.0547,-0.034,1
4775,-0.0885,0.051,9.8275,-0.0027,0.0014,0.0332,1
4795,0.0959,-0.2035,10.0108,0.0452,-0.0066,-0.0525,1
4816,0.0649,-0.0348,10.0586,-0.0257,-0.0359,-0.0234,0
4836,-0.0705,-0.1806,10.0137,0.0494,0.0111,0.0119,0
4856,0.0272,-0.2328,9.9019,-0.0335,0.014,-0.015,0
4876,-0.1608,0.1641,9.888,0.0323,-0.0177,0.0113,0
4896,0.0353,-0.0125,9.6648,0.0432,-0.0099,0.0382,0
4916,-0.015,-0.0843,9.8771,0.0197,-0.0061,-0.017,0
4936,0.0289,0.0434,9.7641,-0.0222,-0.0222,0.0374,0
4956,0.0312,-0.0743,9.662,0.0248,-0.055,0.0089,0
4976,0.1882,0.0005,10.1016,-0.0263,-0.0055,-0.014,0
4996,0.0876,0.1326,9.914,-0.0051,0.0175,-0.0134,0
5016,-0.182,0.1212,9.7852,0.0171,0.0405,-0.0229,0
5036,0.1924,-0.3087,9.4953,0.0155,0.0126,-0.0288,0
5056,0.0959,0.0698,9.5734,0.0085,0.0015,0.0925,0
5076,-0.3061,-0.0867,10.3269,0.0153,-0.0328,0.0051,0
5096,0.0585,-0.1654,9.7285,-0.0145,-0.013,0.0053,0
5117,0.1265,-0.0194,10.0052,-0.0238,0.0094,0.0256,0
5137,-0.155,-0.3913,9.7497,-0.0247,-0.0294,-0.0126,0
5157,-0.0142,0.2223,9.7967,0.0286,0.0474,-0.0228,0
5177,-0.0934,0.2022,10.0219,0.0127,-0.0182,-0.0132,0
5197,-0.0111,-0.1073,9.6997,0.0173,-0.0026,0.0346,0
5217,0.1149,-0.0592,9.8177,-0.0378,-0.0194,0.0282,0
5237,0.0712,-0.3842,9.77,-0.0048,0.032,-0.0224,0
5257,0.0536,0.0673,9.8966,0.0219,-0.0162,-0.0054,0
5277,0.1121,0.025,9.6926,0.0436,0.0191,0.0245,0
5297,0.1982,0.0363,9.7071,-0.033,0.0136,-0.0407,0
5317,0.0989,0.0542,10.0968,0.0043,0.0396,0.0078,0
5337,0.267,0.0208,9.6867,-0.0096,-0.0065,-0.0037,0
5357,0.055,0.1356,9.8768,0.0289,0.0403,0.0358,0
5377,0.1466,-0.0565,9.6375,-0.0268,-0.0339,0.0054,0
5397,0.0527,0.0183,9.5812,-0.0059,0.0348,-0.0008,0
5418,0.0636,-0.2329,9.86,-0.0136,-0.0181,-0.0222,0
5438,0.0974,0.3165,9.7548,-0.0265,0.0148,-0.0427,0
5458,-0.0471,-0.1405,9.871,-0.0015,-0.0255,0.0012,0
5478,-0.1014,0.3983,9.7094,0.0236,0.0253,0.0183,0
5498,-0.0086,-0.2405,9.8598,0.027,0.0107,0.0108,0
5518,0.1249,-0.0042,9.7698,0.0253,-0.0068,-0.0191,0
5538,-0.2613,-0.0656,9.7284,-0.0065,0.0004,-0.0334,0
5558,0.0702,0.3637,9.6771,-0.0418,-0.0003,-0.0063,0
5578,-0.0496,0.0661,9.5405,-0.0272,0.0159,-0.0144,0
5598,0.062,0.1057,9.8362,-0.031,0.0218,0.0012,0
5618,-0.1074,-0.1142,9.9984,-0.0078,-0.0212,-0.0191,0
5638,-0.1133,0.1228,9.7113,-0.0282,0.0528,0.0453,0
5658,-0.0325,-0.2547,9.7874,0.0275,-0.0525,0.0305,0
5678,0.0127,-0.0944,9.5776,-0.0068,-0.0117,0.0324,0
5698,0.0345,0.1955,9.7916,0.0088,-0.0104,-0.0159,0
5719,-0.052,-0.0099,9.8444,0.036,0.0016,0.0228,0
5739,-0.1139,-0.0891,10.0061,-0.0064,-0.0401,-0.0209,0
5759,0.0032,-0.1286,10.0551,0.0202,0.0014,0.014,0
5779,-0.0228,0.1277,9.7193,-0.0314,0.0038,-0.0139,0
5799,0.1437,0.1204,9.8905,-0.0296,0.0198,0.0049,0
5819,-0.2006,0.1656,9.7113,0.0024,-0.0004,-0.012,0
5839,0.2589,0.111,10.0929,0.0049,0.0479,-0.0226,0
5859,-0.0942,0.1561,10.018,-0.0106,0.0228,-0.0332,0
5879,0.0016,0.1111,9.9297,0.0003,-0.0273,-0.0114,0
5899,0.2658,-0.4189,9.5671,0.0243,0.0059,0.0195,0
5919,-0.2228,0.0113,10.2368,0.0097,0.0152,0.006,0
5939,-0.3336,0.0691,9.8038,0.0059,0.0361,-0.0343,0
5959,0.019,-0.151,9.8482,0.0312,0.031,0.0266,0
5979,0.1171,0.0647,9.9297,-0.0092,0.0146,0.0311,0
6000,0.1384,0.1755,9.8031,-0.0224,-0.0108,-0.0035,0
