timestamp_ms,ax,ay,az,gx,gy,gz,label
0,-0.2292,0.2041,9.8805,-0.0298,-0.0411,0.0137,0
20,0.0187,-0.0563,9.9553,-0.0172,-0.0092,0.0481,0
40,0.0186,-0.0945,10.2207,-0.0297,0.0048,-0.0329,0
60,-0.0179,0.0612,9.9268,0.0026,0.0241,0.0208,0
80,-0.0545,-0.0092,10.1059,0.063,-0.0239,-0.0127,0
100,0.1577,-0.0344,9.901,0.0256,-0.0187,0.0241,0
120,-0.0254,0.009,9.8673,0.0375,-0.005,0.0343,0
140,-0.0068,-0.0658,9.319,0.046,0.0014,-0.0176,0
160,0.075,0.2043,9.8963,0.0232,0.0308,-0.0234,0
180,-0.1325,0.0729,10.0058,0.068,-0.0282,0.0419,0
200,0.1788,-0.2276,9.8309,-0.0631,0.0324,0.0136,0
220,-0.0915,-0.315,9.7922,-0.0242,0.0245,0.0383,0
240,0.011,-0.0624,9.9722,0.0177,-0.008,0.0392,0
260,0.1834,-0.0283,9.9038,-0.0374,-0.0182,-0.0411,0
280,-0.0117,0.062,9.7784,-0.0674,-0.0054,0.0512,0
301,0.0763,0.1386,9.9147,-0.0052,-0.0254,0.0206,0
321,-0.2055,-0.0379,9.8998,-0.0316,-0.0327,-0.0131,0
341,-0.0078,-0.1172,9.8202,0.0062,-0.0365,-0.0243,0
361,0.0394,-0.2169,9.8829,0.0111,0.0279,0.0072,0
381,0.0318,-0.0429,9.5546,0.0347,0.0472,-0.0505,0
401,0.0333,0.034,10.0746,-0.0134,-0.0144,0.0021,0
421,0.017,-0.0442,9.6956,0.0356,0.0153,0.0266,0
441,-0.233,0.0142,9.7695,0.0287,-0.014,-0.0629,0
461,0.1,-0.0121,9.7311,-0.0422,-0.0122,0.0161,0
481,-0.0144,-0.0825,9.8291,-0.0346,-0.0305,-0.0489,0
501,-0.0429,-0.1713,9.7936,0.0962,0.0013,-0.0064,0
521,0.0663,-0.2345,9.874,-0.0123,-0.0157,-0.0033,0
541,-0.3357,0.0498,9.8563,-0.009,0.0063,0.0434,0
561,-0.2618,-0.0829,9.5658,0.0505,0.0536,0.0337,0
581,-0.0335,-0.0552,9.8005,0.0082,-0.0352,0.045,0
602,-0.1031,0.2139,9.8447,-0.017,0.0045,0.0202,0
622,0.0226,0.0177,9.9376,-0.0057,-0.0372,0.0065,0
642,0.0856,-0.0817,9.8837,-0.0449,0.0201,-0.0118,0
662,0.1215,0.0803,9.8015,0.001,0.0076,-0.008,0
682,-0.0324,0.0333,9.8059,0.0352,0.0186,0.0321,0
702,0.1698,0.1289,9.6355,0.0369,0.001,0.0202,0
722,-0.1622,0.4235,9.5308,-0.0308,-0.0011,-0.0741,0
742,-0.193,0.1886,9.6524,0.0404,-0.0134,-0.0232,0
762,0.0016,0.3593,9.966,0.0064,0.0185,0.0424,0
782,-0.2146,-0.0405,10.096,0.0172,0.0102,-0.0229,0
802,-0.0425,-0.1192,9.9872,0.0037,-0.0085,-0.0381,0
822,0.0123,0.5541,9.6641,0.0028,-0.0141,-0.0596,0
842,-0.0017,0.0566,9.8358,0.0129,0.0599,-0.0104,0
862,0.1126,0.0197,9.735,-0.066,-0.0376,-0.0208,0
882,0.0032,-0.0719,10.0842,0.005,0.013,-0.03,0
903,0.1589,0.3313,10.0279,0.026,-0.0191,0.0067,0
923,0.0686,0.1274,9.9456,0.0477,-0.023,-0.0477,0
943,-0.0125,-0.1068,10.0259,0.0035,-0.0581,-0.0227,0
963,-0.1919,-0.1412,10.1112,0.0441,0.0594,-0.029,0
983,0.0514,-0.1372,10.1948,-0.0002,-0.0366,-0.0115,0
1003,-0.0869,0.1222,9.6405,0.0022,-0.0228,-0.0257,0
1023,0.0908,0.2,9.913,0.0128,0.0153,-0.0257,0
1043,0.0335,-0.2047,9.5328,0.0401,-0.0111,0.0041,0
1063,-0.1772,0.3202,9.9808,-0.0017,-0.0156,0.0408,0
1083,-0.1865,0.0339,9.5234,-0.0098,0.0323,0.036,0
1103,0.1601,-0.0198,9.8114,-0.0327,0.004,-0.0351,0
1123,0.1034,-0.2681,9.9494,0.01,0.0162,0.0395,0
1143,-0.0646,0.009,9.8168,-0.0776,-0.0151,0.0641,0
1163,0.2249,0.1102,9.5202,0.0046,0.0333,-0.0013,0
1183,-0.1887,-0.0575,9.7642,0.03,0.0388,-0.0155,0
1204,-0.0057,0.2782,10.1616,-0.0174,0.0088,0.0239,0
1224,-0.0599,-0.1097,9.7424,0.0556,0.0162,0.028,0
1244,-0.1587,-0.0901,9.811,0.0176,-0.0433,-0.0087,0
1264,0.1314,0.1098,9.9489,-0.043,-0.0486,0.0386,0
1284,0.0686,0.1641,9.6833,0.0008,0.0132,-0.008,0
1304,0.0096,-0.1188,10.0305,-0.0045,0.0029,0.0316,0
1324,-0.1424,0.2091,9.964,0.0027,-0.0306,-0.0069,0
1344,0.0221,0.2235,9.887,0.0211,-0.0093,-0.0445,0
1364,0.0661,0.1481,9.7345,0.0422,-0.0497,0.0173,0
1384,0.0018,0.0536,9.7539,-0.0091,0.0111,-0.0352,0
1404,-0.0667,0.0373,9.738,-0.0055,0.016,0.0128,0
1424,-0.0397,-0.0145,9.5547,0.0066,-0.0043,-0.0143,0
1444,0.329,-0.1031,9.8116,0.0364,-0.0227,-0.0105,0
1464,-0.111,0.0417,9.9122,-0.0225,-0.0104,0.0114,0
1484,-0.2896,-0.0216,9.7714,0.0637,0.0222,0.0492,0
1505,-0.1689,-0.0773,10.0542,-0.0003,-0.0247,0.0376,0
1525,0.1124,0.1614,9.8402,-0.0116,-0.0191,-0.0207,0
1545,-0.0816,-0.1558,9.7492,0.0223,0.0248,0.0091,0
1565,-0.1834,-0.0826,9.6842,0.0259,-0.0285,0.0428,0
1585,0.0246,-0.158,10.1063,-0.0142,-0.0285,-0.0473,0
1605,-0.27,-0.1538,9.8566,0.0089,0.0199,0.0267,0
1625,-0.1166,-0.1621,9.7846,0.0314,0.041,0.0095,0
1645,0.2388,-0.1081,9.8497,-0.0153,0.0265,0.0186,0
1665,-0.1977,0.0974,10.2318,0.0009,-0.009,0.0197,0
1685,0.1731,-0.1216,9.7937,-0.0623,0.0143,-0.0002,0
1705,-0.1036,0.0626,10.0307,0.0141,-0.0531,-0.0216,0
1725,-0.0947,0.287,9.7372,0.0335,0.0215,-0.0201,0
1745,-0.0703,0.04,9.8816,-0.0265,0.0429,0.0175,0
1765,0.2875,-0.0439,9.8895,0.0174,0.0214,-0.0115,0
1785,0.0889,0.1297,9.5677,-0.0492,0.03,-0.0115,0
1806,0.017,-0.2378,9.7129,0.0198,-0.0229,0.0071,0
1826,0.1244,-0.1332,9.8518,-0.0169,-0.0166,0.0339,0
1846,0.1731,-0.0008,10.0783,-0.0243,-0.0128,-0.0021,0
1866,-0.0338,-0.0074,9.9496,0.0462,-0.0183,-0.053,0
1886,0.1738,0.0841,10.1134,0.0044,-0.0058,-0.0342,0
1906,-0.078,0.1566,10.2585,0.0329,-0.0129,-0.0153,0
1926,-0.5256,0.0214,9.3268,0.0481,-0.0085,-0.0162,0
1946,-0.0495,0.131,9.9463,0.0156,0.0143,-0.0038,0
1966,0.0339,0.0842,9.7966,0.0096,0.0238,0.0038,0
1986,-0.142,0.2041,10.303,0.0841,0.0015,-0.0131,0
2006,0.1175,0.0513,9.6213,0.037,0.0206,-0.015,0
2026,-0.0326,-0.0456,9.9472,-0.0499,-0.0089,0.0389,0
2046,0.0209,-0.2005,9.7196,-0.0223,0.0309,-0.0126,0
2066,0.0704,-0.0792,9.8088,-0.0078,0.0079,0.0202,0
2086,0.0037,-0.3109,9.8841,0.0143,0.0044,-0.012,0
2107,0.2277,-0.3203,9.6496,0.0477,-0.0537,0.0098,0
2127,-0.1437,0.0052,9.6796,0.0033,0.0202,-0.0028,0
2147,-0.1833,0.404,10.0053,0.0132,0.0313,-0.0608,0
2167,-0.1022,-0.1164,9.9361,0.0366,0.0318,-0.0347,0
2187,-0.0157,-0.1542,9.7097,-0.0002,0.0049,0.0156,0
2207,0.146,0.235,9.7006,-0.0298,0.0172,-0.0231,0
2227,-0.0871,0.0016,9.7659,-0.0142,0.0489,-0.0026,0
2247,-0.0734,-0.2672,9.9673,0.0143,-0.0131,0.0276,0
2267,0.1124,0.1377,9.6665,-0.0182,0.037,-0.0084,0
2287,0.0072,-0.1236,10.2737,0.0268,0.0211,0.0162,0
2307,-0.3822,0.1417,9.8618,0.0245,-0.0212,0.0002,0
2327,0.2525,-0.0036,9.6409,0.042,0.0003,-0.0394,0
2347,0.037,0.0471,10.0821,0.0019,-0.0052,0.0561,0
2367,0.3067,0.1082,9.7066,0.0149,0.0381,-0.0072,0
2387,0.0711,0.0632,9.9879,0.0222,-0.0235,0.0466,0
2408,-0.1994,0.0451,9.254,-0.0031,-0.0395,0.01,0
2428,0.1607,-0.1799,9.7797,0.0297,-0.0201,0.0128,0
2448,-0.0285,-0.2099,9.8887,-0.0425,0.0399,0.0199,0
2468,-0.1372,0.0559,9.6841,0.0457,-0.0059,-0.0267,0
2488,0.0815,-0.0868,9.6586,-0.0038,-0.0051,0.0088,0
2508,-0.0462,0.2371,9.9953,0.007,0.0183,0.004,0
2528,0.1892,0.2953,9.591,-0.0056,0.0446,-0.029,0
2548,0.2793,-0.0722,9.4658,-0.0509,-0.0029,0.004,0
2568,-0.0662,-0.1489,10.1504,-0.0628,-0.0413,0.0129,0
2588,0.0477,0.069,9.7226,-0.0062,0.0635,-0.0293,0
2608,-0.125,-0.2786,10.037,0.0329,-0.032,0.0287,0
2628,0.0274,0.0093,9.9254,0.0072,0.0244,0.0101,0
2648,-0.0169,0.0488,10.0979,-0.012,-0.0146,0.0237,0
2668,-0.0224,-0.0517,9.4949,-0.0215,0.0396,-0.0308,0
2688,0.1849,0.0948,10.1268,0.0453,0.0528,-0.0063,0
2709,-0.1709,-0.0615,10.1506,0.0247,0.0393,0.0075,0
2729,0.0737,0.2773,10.1328,-0.0316,0.0168,0.0453,0
2749,-0.0157,-0.1325,9.8791,-0.0284,-0.0084,0.0019,0
2769,-0.0341,-0.0509,9.5721,-0.0301,0.1027,-0.0551,0
2789,-0.0691,0.0735,9.7233,0.035,-0.0041,-0.0141,0
2809,-0.1301,0.1273,9.874,-0.0685,-0.0292,-0.0184,0
2829,-0.0519,-0.2303,10.0265,-0.0493,0.0057,-0.0391,0
2849,0.2132,-0.2785,9.8749,0.0443,0.0425,0.0013,0
2869,0.0377,-0.1496,10.1517,-0.0056,0.0712,0.0215,0
2889,0.1052,-0.0188,9.6519,0.0089,0.0237,-0.0138,0
2909,-0.141,-0.0578,9.9553,-0.0204,0.0137,-0.0177,0
2929,0.0882,0.0496,9.7788,0.0101,0.0211,0.026,0
2949,0.0863,0.0261,9.4752,0.0087,-0.0424,-0.0249,0
2969,-0.0486,0.108,10.1254,0.0319,0.0103,0.0505,0
2989,0.2873,-0.0227,10.1072,0.0287,-0.0446,0.0148,0
3010,0.1678,0.3644,9.8251,0.0177,-0.0222,-0.0079,0
3030,0.0163,0.0637,9.959,-0.0003,0.0182,-0.0051,0
3050,0.1547,-0.3073,9.849,-0.0015,0.0138,-0.0578,0
3070,0.0898,-0.2769,9.9036,0.0075,0.036,-0.021,0
3090,0.0042,0.1218,9.8387,-0.0499,0.0135,0.047,0
3110,0.2898,-0.0382,10.0301,-0.0306,0.0264,-0.0098,0
3130,0.1554,-0.0927,9.5422,-0.0062,-0.0094,0.0073,0
3150,0.1761,0.0196,10.0802,0.0416,-0.0313,-0.0281,0
3170,-0.009,0.2303,9.6388,-0.0028,-0.0199,0.0073,0
3190,-0.0822,0.0116,9.8703,-0.0338,0.0428,0.0425,0
3210,-0.0487,-0.1172,9.8196,0.0052,-0.0007,-0.0584,0
3230,-0.0848,0.0881,9.7783,-0.04,-0.0201,-0.0022,0
3250,0.0906,-0.0015,9.7492,-0.0401,-0.0146,0.0314,0
3270,-0.1854,-0.4629,9.6644,0.0123,-0.0032,-0.0043,0
3290,-0.1263,-0.0964,10.0071,0.02,-0.0046,0.024,0
3311,-0.0897,-0.3956,9.3396,0.0251,-0.0064,-0.0247,0
3331,0.2057,-0.1169,9.8094,0.0085,0.0071,0.0374,0
3351,-0.0816,0.0758,9.7828,-0.0495,-0.0204,0.0431,0
3371,-0.044,-0.0055,9.5252,-0.0194,0.0072,0.0344,0
3391,-0.0194,-0.3013,9.9611,-0.0083,-0.0065,0.0229,0
3411,0.0145,0.1809,9.5436,0.0027,-0.0619,-0.0205,0
3431,0.1863,0.1223,9.9672,0.0258,-0.0135,0.0285,0
3451,0.0844,-0.2317,9.7218,0.0013,0.0076,0.0255,0
3471,0.1407,0.0167,9.5751,-0.019,-0.0229,0.0076,0
3491,-0.2142,0.0754,10.0059,-0.0131,-0.0115,0.0166,0
3511,-0.0307,-0.1242,35.0095,0.0276,3.173,-0.002,1
3531,8.5124,-10.5385,30.3704,0.7011,2.7811,0.9252,1
3551,13.0242,-17.9681,23.4012,1.1889,2.2,1.403,1
3571,13.5861,-22.7008,15.943,1.4886,1.5829,1.4135,1
3591,9.5763,-24.7413,8.4402,1.6918,0.9834,1.0201,1
3612,3.9141,-24.5218,2.4897,1.6395,0.3255,0.3807,1
3632,-1.8176,-22.74,-0.8463,1.4787,-0.2024,-0.1842,1
3652,-5.8733,-19.118,-1.9655,1.2666,-0.5371,-0.5903,1
3672,-7.8074,-14.6136,-1.267,0.9489,-0.8129,-0.8084,1
3692,-6.7046,-10.1666,1.891,0.6489,-0.9837,-0.7001,1
3712,-4.4019,-5.2996,4.9789,0.3901,-1.0424,-0.4274,1
3732,-1.0408,-1.2712,8.8586,0.0818,-1.0509,-0.0609,1
3752,2.0386,2.1941,12.1868,-0.2067,-0.9252,0.1862,1
3772,3.8329,4.8124,13.6027,-0.3475,-0.777,0.35,1
3792,4.3176,6.6114,15.3644,-0.4537,-0.5597,0.4285,1
3812,3.442,7.5506,15.3874,-0.4891,-0.336,0.3457,1
3832,2.1345,7.6135,14.2524,-0.5563,-0.207,0.1849,1
3852,-0.3308,7.1957,13.1472,-0.4905,-0.0144,0.031,1
3872,-1.7367,6.1022,11.3689,-0.4528,0.106,-0.1863,1
3892,-2.139,5.3273,9.9006,-0.3411,0.2174,-0.2253,1
3913,-2.3546,3.6098,8.1139,-0.2967,0.2956,-0.2591,1
3933,-1.521,2.3727,7.6454,-0.1624,0.3087,-0.1589,1
3953,-0.4701,0.9669,7.2851,-0.0552,0.3295,-0.0597,1
3973,0.3328,-0.3529,7.2457,0.0415,0.3125,0.0693,1
3993,1.4115,-1.2223,7.7878,0.0932,0.2546,0.0853,1
4013,1.1,-1.9422,8.2906,0.156,0.2117,0.1339,1
4033,1.1217,-2.1046,9.4492,0.1968,0.07,0.083,1
4053,1.069,-2.3188,10.1985,0.168,0.1353,0.0946,1
4073,-0.094,-2.5146,10.6916,0.1402,-0.0059,-0.031,1
4093,-0.3455,-2.2329,10.9627,0.1513,-0.0199,-0.046,1
4113,-0.6755,-1.8004,10.5206,0.1296,-0.0492,-0.087,1
4133,-0.6915,-1.1268,10.6788,0.0891,-0.0874,-0.0903,1
4153,-0.5683,-0.7848,10.4446,0.0986,-0.1531,-0.1028,1
4173,-0.5618,-0.3234,10.1849,0.0139,-0.0683,-0.0059,1
4193,0.0212,0.137,9.7656,-0.0639,-0.0767,-0.0333,1
4214,-0.161,0.2194,9.7617,-0.0287,0.0061,0.0138,1
4234,0.0206,0.1554,9.9517,0.0064,0.0143,0.0181,1
4254,-0.1328,0.3222,10.0032,0.0073,-0.0138,-0.0281,1
4274,0.1938,0.0591,9.6117,0.0035,0.0002,0.0137,1
4294,-0.1117,-0.1531,9.4852,-0.0339,-0.0021,0.0128,1
4314,-0.1502,0.1432,9.9783,-0.0145,0.0151,0.0509,1
4334,-0.2097,-0.2913,9.6056,0.0403,0.0251,-0.0211,1
4354,-0.0422,-0.1117,9.9853,-0.0542,-0.0153,0.0278,1
4374,0.1098,0.0298,9.9682,0.0148,0.0205,0.0485,1
4394,-0.0221,-0.3033,9.7223,-0.0211,0.0516,-0.0119,1
4414,-0.0588,-0.0079,9.651,-0.0693,0.0079,-0.0025,1
4434,-0.0847,-0.1221,10.0858,-0.0686,-0.022,0.0004,1
4454,-0.1937,0.0197,9.8648,-0.0034,0.0091,-0.0073,1
4474,0.0092,-0.043,10.357,-0.0261,0.0173,0.0311,1
4494,-0.149,-0.1263,9.9321,-0.0169,-0.0147,-0.0342,1
4515,0.1152,-0.1257,9.8175,-0.0017,-0.0429,-0.0125,1
4535,0.1731,-0.0657,9.8152,0.0087,-0.0078,-0.0134,1
4555,-0.0623,-0.0435,9.8859,-0.0744,-0.0524,-0.0268,1
4575,-0.0173,-0.0668,9.9779,0.0434,0.0149,-0.0341,1
4595,-0.3369,-0.1025,9.7021,0.0029,-0.0392,0.0033,1
4615,0.1605,-0.1507,9.8246,-0.017,-0.0205,0.0518,1
4635,-0.0073,0.0344,9.4087,-0.016,-0.0164,-0.0023,1
4655,-0.2189,0.264,9.5109,0.0051,0.0064,0.0309,1
4675,-0.0557,0.0701,9.9517,0.002,0.0448,-0.0006,1
4695,0.0936,0.0729,10.0475,0.0057,0.029,0.0074,1
4715,-0.2136,0.1201,9.9134,-0.0095,0.0246,-0.0415,1
4735,0.0451,0.1418,9.8523,0.0303,0.0339,0.0151,1
4755,-0.1771,-0.0183,9.9604,-0.0279,-0.0155,0.005,1
4775,-0.1932,0.1723,9.8071,-0.0413,0.0229,-0.0064,1
4795,0.0185,-0.1018,9.7379,-0.0308,0.0653,-0.0301,1
4816,0.1559,-0.1124,10.0139,-0.0019,0.0334,-0.0604,0
4836,-0.2787,0.0244,9.9835,0.0204,-0.0043,-0.083,0
4856,0.3428,-0.1748,10.034,-0.0538,-0.0321,0.0134,0
4876,-0.0488,0.2553,9.9462,-0.0063,-0.0535,0.0109,0
4896,0.0039,-0.0453,9.912,-0.0177,0.0062,-0.0118,0
4916,0.0012,-0.1537,9.8165,-0.0038,-0.02,0.0021,0
4936,0.0518,-0.3101,10.1406,0.035,-0.0353,-0.0359,0
4956,-0.1737,0.2345,9.8563,0.0227,0.0429,-0.0145,0
4976,-0.0767,-0.2716,9.8472,-0.0484,-0.0305,0.0171,0
4996,-0.0343,-0.0746,9.7119,-0.0118,0.0189,-0.0055,0
5016,-0.2432,0.0696,9.6828,-0.0473,0.013,0.0568,0
5036,0.1107,0.021,9.4977,0.0082,0.008,-0.0362,0
5056,-0.1242,-0.0242,9.9081,0.0095,-0.0252,-0.0292,0
5076,-0.116,-0.2398,9.6088,-0.0042,0.0012,0.0216,0
5096,0.0171,-0.1399,9.8787,-0.0125,0.0082,-0.0096,0
5117,-0.0967,0.0319,10.0318,0.0229,-0.0035,0.0181,0
5137,-0.0908,0.2663,9.8358,0.0074,0.0318,-0.0469,0
5157,-0.0072,-0.1473,9.7612,-0.0089,0.0145,-0.003,0
5177,0.0353,-0.2042,9.7549,-0.048,0.0199,-0.0426,0
5197,0.0357,-0.1809,9.7425,-0.0439,0.0001,0.0319,0
5217,-0.0228,0.0815,10.1929,-0.022,-0.0456,0.0222,0
5237,0.2392,0.0792,9.5933,0.0297,-0.0195,0.0064,0
5257,0.161,0.0193,10.1643,-0.0253,-0.0414,-0.0511,0
5277,-0.1723,0.0544,9.6677,-0.0053,-0.0036,0.016,0
5297,-0.0653,0.1755,9.8358,-0.0453,-0.0209,-0.0482,0
5317,0.0845,0.1696,10.0259,-0.0114,-0.0272,0.0183,0
5337,-0.0642,0.0537,9.8216,0.0137,-0.0206,0.0122,0
5357,-0.1303,-0.2249,9.8353,-0.0743,0.0227,0.0146,0
5377,0.0131,-0.2311,10.0069,0.0043,0.0119,0.0004,0
5397,-0.3492,0.2231,9.4856,-0.0006,0.0117,-0.0402,0
5418,-0.282,0.018,9.6841,0.0344,0.0293,0.0024,0
5438,-0.1544,0.0515,9.9768,-0.0673,0.0402,0.0097,0
5458,0.1274,0.1331,9.754,-0.0073,-0.017,0.0314,0
5478,-0.1405,-0.1572,9.619,0.0183,-0.0325,0.0328,0
5498,0.1664,0.3275,9.328,0.0468,-0.021,-0.0085,0
5518,-0.1183,-0.0431,9.7141,-0.0291,-0.0304,-0.0333,0
5538,0.2071,0.0534,10.0622,0.0046,-0.03,-0.0142,0
5558,0.0658,0.2086,9.9705,-0.0271,0.0084,-0.025,0
5578,0.1033,0.0759,9.835,-0.0565,0.0367,0.0132,0
5598,0.1337,0.1529,9.5879,0.0285,-0.0094,0.0103,0
5618,-0.1168,0.0364,9.5529,0.0278,0.0293,0.0036,0
5638,-0.1292,0.0436,9.6302,0.0386,-0.0158,0.0216,0
5658,0.0803,0.188,10.0782,-0.0009,-0.0468,0.0025,0
5678,-0.1111,-0.0075,10.0851,0.0128,0.0123,-0.0197,0
5698,-0.2077,0.106,9.6686,-0.0189,-0.025,-0.0325,0
5719,0.1452,-0.0718,9.7695,-0.0137,0.022,-0.0252,0
5739,-0.0093,0.2125,10.0118,0.0013,-0.0154,-0.0001,0
5759,-0.0714,0.2824,9.6072,-0.0266,-0.0193,0.0271,0
5779,-0.0301,0.0089,9.9259,0.0209,0.0136,-0.0142,0
5799,0.0411,-0.2455,9.7514,0.0441,-0.0004,0.021,0
5819,0.1521,0.1448,9.6446,0.0952,0.0429,-0.0149,0
5839,-0.1101,-0.3205,9.8447,-0.012,-0.0032,-0.0239,0
5859,-0.12,-0.315,9.9673,0.0037,0.0181,0.0083,0
5879,0.2952,0.0171,9.9432,0.0085,-0.0252,-0.0032,0
5899,-0.012,0.0128,9.9447,0.0332,0.0086,0.025,0
5919,0.1277,0.0037,9.8349,0.0378,0.002,0.0128,0
5939,-0.0026,0.1378,9.49,-0.014,-0.0132,0.0233,0
5959,-0.0327,0.0207,9.9872,0.0122,-0.0126,0.0416,0
5979,-0.1367,-0.0998,9.785,0.0057,0.0247,-0.0026,0
6000,0.1855,0.0353,9.9132,0.0899,0.0315,-0.0645,0
