timestamp_ms,ax,ay,az,gx,gy,gz,label
0,0.2664,0.1996,9.8355,-0.0038,0.0175,0.0024,0
20,0.1647,0.1193,9.7026,-0.0033,-0.0099,-0.0172,0
40,-0.0736,-0.0214,9.7543,0.004,-0.0066,0.0643,0
60,0.3784,-0.2153,9.7871,-0.0654,-0.0383,0.0278,0
80,0.0732,-0.1351,9.8129,-0.0032,0.03,0.0473,0
100,0.1556,-0.0124,9.9791,0.0307,-0.0097,0.0031,0
120,0.2195,0.084,9.5163,0.0033,-0.0387,-0.0366,0
140,-0.1347,-0.0424,10.0132,0.0479,0.0178,-0.0164,0
160,-0.022,0.0107,9.6184,-0.0043,0.0064,0.0089,0
180,-0.071,0.0414,9.9586,0.0208,0.0662,-0.0045,0
200,-0.191,0.2166,9.5154,-0.0116,0.0268,0.0,0
220,0.2806,0.133,9.808,0.035,-0.0413,0.024,0
240,0.3377,0.0072,9.7115,-0.0103,0.0109,0.0211,0
260,-0.1731,-0.1253,10.0406,0.0479,0.0274,-0.0155,0
280,-0.1171,0.0042,10.0807,0.0294,-0.0367,-0.022,0
301,-0.2054,0.1986,10.0961,0.0291,-0.0282,0.0018,0
321,-0.0082,0.0856,10.2027,-0.0295,-0.0065,0.0191,0
341,-0.2854,0.1329,9.8171,0.0259,0.0092,0.011,0
361,-0.0737,0.042,9.6766,-0.0149,-0.0276,0.0208,0
381,-0.22,-0.0454,9.7829,-0.0364,-0.0048,-0.0163,0
401,0.0979,-0.1398,9.8219,-0.0097,-0.0052,0.0054,0
421,0.155,0.2401,9.5458,-0.011,0.0119,0.0411,0
441,0.041,0.3065,9.5517,0.0039,0.0053,-0.0102,0
461,-0.0634,0.1476,9.8513,0.0398,-0.0161,-0.0128,0
481,-0.1094,0.1856,9.7153,-0.014,-0.0305,-0.0156,0
501,-0.1147,0.226,9.6622,-0.0741,-0.0085,0.0168,0
521,-0.2517,-0.0354,9.4333,-0.0191,-0.0142,0.0299,0
541,-0.0482,-0.0888,9.9663,-0.0044,-0.0031,-0.0093,0
561,0.1219,0.3554,9.714,0.0153,0.005,-0.0121,0
581,-0.0405,-0.0151,9.9709,-0.0348,0.0109,-0.0051,0
602,0.2262,0.067,9.7797,-0.0135,-0.0006,0.0027,0
622,0.2037,-0.0743,9.817,-0.0167,0.0121,0.0208,0
642,0.0547,-0.0879,9.6992,-0.0249,0.003,0.0241,0
662,-0.2335,0.2386,9.7967,0.002,0.0084,-0.0148,0
682,0.0481,-0.2027,9.3945,0.015,0.0076,-0.0156,0
702,-0.0829,0.0547,9.5933,0.0044,0.0416,0.0265,0
722,0.1118,0.0433,10.0781,0.0388,0.0327,-0.0094,0
742,-0.1259,0.0871,9.9886,0.0035,0.0022,0.0052,0
762,-0.2496,-0.2327,9.8464,-0.0234,0.015,-0.0186,0
782,-0.2005,-0.0162,9.9045,-0.0471,0.001,-0.0184,0
802,0.0009,-0.14,9.9289,-0.016,0.0057,-0.0446,0
822,0.0264,0.012,9.9557,0.0148,-0.0159,-0.0113,0
842,-0.1904,-0.0125,9.8264,0.0331,-0.0679,0.035,0
862,-0.1386,0.187,9.5002,-0.0133,-0.0246,0.0403,0
882,-0.1306,0.1181,9.7936,0.0117,-0.004,0.0384,0
903,-0.2067,0.1447,9.7291,0.0264,-0.0376,-0.0375,0
923,-0.0028,-0.0823,9.7939,0.0445,-0.0258,0.0071,0
943,-0.0318,-0.205,9.7725,0.0554,0.0675,0.022,0
963,0.0526,0.0765,9.5451,-0.0134,-0.0472,0.0141,0
983,0.1819,-0.0203,9.3946,-0.0273,0.0227,-0.011,0
1003,-0.1411,-0.2857,9.7485,0.0482,0.0228,0.0582,0
1023,0.0539,0.1758,9.6891,-0.0127,0.0402,0.0153,0
1043,0.0076,-0.2458,10.106,-0.0029,0.0429,-0.038,0
1063,-0.2682,-0.0181,9.9734,-0.0293,0.0398,-0.0718,0
1083,-0.2777,0.0172,9.4742,0.0195,-0.0127,0.0154,0
1103,-0.1199,-0.0405,9.7602,-0.0458,-0.0152,0.039,0
1123,-0.3132,-0.0357,9.7801,-0.0233,-0.0421,-0.0325,0
1143,0.1826,-0.0461,9.9801,-0.055,-0.0316,0.0197,0
1163,-0.0294,0.1822,9.4498,-0.0355,0.0132,-0.0025,0
1183,-0.099,-0.1175,9.5115,0.0362,0.0052,-0.0395,0
1204,-0.1971,0.1621,9.7227,0.0399,0.0052,0.0442,0
1224,-0.0591,-0.2176,9.9961,-0.0129,0.0104,-0.0339,0
1244,0.038,0.1142,9.6966,0.0179,-0.0403,-0.0225,0
1264,0.1184,-0.0306,9.6846,0.022,0.0023,0.0409,0
1284,0.0326,0.052,9.8086,-0.0266,0.0069,0.0716,0
1304,-0.5151,0.0046,9.5354,0.0073,-0.0533,0.0498,0
1324,-0.1434,0.0697,9.8946,-0.0276,0.0133,-0.0105,0
1344,0.0146,-0.0774,9.7764,-0.0068,-0.0275,-0.0013,0
1364,0.057,0.2719,9.8565,0.0061,-0.0088,-0.0199,0
1384,-0.0166,-0.0432,9.5163,-0.0327,-0.018,0.0057,0
1404,-0.074,-0.0846,9.8532,-0.033,0.0083,-0.0318,0
1424,0.1312,-0.1623,9.9761,0.0088,-0.0087,0.0002,0
1444,0.1457,-0.0215,9.7847,-0.0164,0.0388,-0.0309,0
1464,-0.2418,-0.0717,9.9888,-0.0349,-0.0559,-0.0323,0
1484,0.089,0.0449,9.9014,0.0042,-0.0138,0.0168,0
1505,0.0488,-0.1028,9.8252,0.0254,0.0351,0.0567,0
1525,-0.0463,0.0468,9.7451,-0.0796,-0.0268,-0.0553,0
1545,0.145,0.1879,9.8745,-0.0346,0.0267,-0.0165,0
1565,0.0974,0.1057,9.9352,0.0568,0.0098,0.0066,0
1585,0.0525,0.0807,9.577,-0.0103,-0.0252,0.0345,0
1605,0.0428,0.0174,9.8873,-0.0115,0.0136,-0.0234,0
1625,0.1621,-0.2283,9.6348,-0.0304,-0.0098,0.0248,0
1645,0.008,0.1639,9.6418,0.0119,-0.0213,0.0156,0
1665,-0.0028,0.2841,10.2096,0.0288,-0.0286,0.0244,0
1685,-0.0764,-0.1973,9.6533,0.0233,-0.0153,0.007,0
1705,-0.081,0.0167,9.8214,-0.046,-0.0315,0.0049,0
1725,-0.2335,-0.2224,9.6724,-0.0263,0.0176,0.0442,0
1745,0.3016,0.0293,9.9428,-0.0708,0.0485,0.025,0
1765,-0.0622,-0.0188,9.8275,0.041,-0.0063,-0.0649,0
1785,-0.0192,-0.0624,9.639,-0.0097,0.0029,-0.065,0
1806,-0.2664,-0.2833,10.1654,0.0438,0.0198,-0.0081,0
1826,-0.0012,0.2754,9.9422,0.0452,0.0577,0.0044,0
1846,-0.0871,0.2284,9.8053,0.0104,0.0592,0.0493,0
1866,-0.1432,-0.002,9.6902,0.0245,0.0484,-0.0013,0
1886,-0.1133,0.0354,10.2956,-0.027,-0.036,0.0048,0
1906,-0.125,-0.158,9.6942,-0.016,-0.0055,-0.0423,0
1926,-0.057,0.0049,9.8081,0.015,-0.0219,0.0193,0
1946,-0.1627,0.0764,9.7617,-0.0069,0.0116,0.048,0
1966,-0.4066,0.019,9.8485,0.0117,0.0007,0.0321,0
1986,-0.1046,0.1154,9.641,0.0189,-0.0141,-0.0295,0
2006,-0.1857,-0.1952,9.5496,-0.0206,-0.0264,-0.0449,0
2026,-0.1519,0.3108,10.0153,0.0097,0.0066,0.015,0
2046,-0.0693,0.024,10.1668,0.04,0.0106,0.0644,0
2066,0.2155,0.0136,9.9277,0.0307,-0.0068,0.0551,0
2086,0.0446,-0.0614,9.9189,-0.0489,-0.0083,0.0035,0
2107,-0.0763,-0.0998,9.5622,0.0329,-0.0167,-0.0232,0
2127,-0.0553,0.1727,9.7183,-0.0457,-0.0413,-0.0019,0
2147,-0.2344,0.0905,9.7529,-0.0302,0.0187,0.0145,0
2167,0.1513,-0.456,9.9525,-0.0177,-0.0158,0.0332,0
2187,0.1365,0.216,9.9794,-0.0577,-0.0437,-0.0207,0
2207,-0.0172,0.0837,9.7133,0.0026,-0.01,0.0137,0
2227,-0.0858,0.0249,9.9034,-0.0085,0.0483,-0.0334,0
2247,0.0992,0.06,9.6663,-0.0359,-0.0205,-0.0091,0
2267,-0.3353,-0.0643,9.9972,0.0168,-0.0042,0.0095,0
2287,0.1704,-0.0629,9.5759,-0.0004,0.0555,-0.0148,0
2307,-0.0212,-0.2861,9.7534,0.0113,-0.0341,-0.0213,0
2327,-0.023,-0.0133,9.7458,0.0431,-0.0187,-0.0013,0
2347,0.243,0.2693,9.8651,-0.0151,-0.0152,0.0654,0
2367,-0.2584,0.3112,10.1693,0.0523,-0.0905,0.0168,0
2387,0.002,0.2026,9.6758,-0.0092,-0.0189,-0.0152,0
2408,0.2307,-0.0585,9.6074,-0.0126,0.0221,-0.009,0
2428,-0.1127,-0.0059,9.8428,-0.0244,0.0653,0.0049,0
2448,0.2568,-0.0965,9.8186,-0.0263,0.0091,-0.0139,0
2468,-0.0847,-0.0769,9.8482,0.0182,0.0108,0.0293,0
2488,0.1525,0.2806,9.7334,-0.0129,-0.0117,0.0289,0
2508,-0.041,0.3749,9.5961,-0.051,-0.0317,-0.077,0
2528,-0.0708,-0.004,9.5988,-0.008,-0.0088,0.0561,0
2548,-0.062,0.0731,9.9646,0.0087,0.0106,-0.062,0
2568,-0.1138,0.0105,9.6402,0.0052,0.0228,0.0477,0
2588,0.252,0.0658,9.8348,0.0036,0.0224,0.0038,0
2608,-0.0374,0.0955,9.608,-0.0288,-0.0182,-0.0331,0
2628,0.0727,-0.1298,9.9915,-0.0165,0.0175,0.0322,0
2648,-0.0307,-0.2331,9.6292,0.0456,-0.0729,-0.0238,0
2668,-0.0618,0.1863,9.644,-0.0411,0.0184,-0.022,0
2688,0.0389,-0.1953,10.0161,0.0013,-0.0,0.0171,0
2709,-0.0419,0.1434,9.3537,0.0093,-0.0258,0.0573,0
2729,0.0856,-0.1065,9.9707,-0.027,-0.0556,0.0157,0
2749,-0.187,-0.2062,9.7757,0.0011,-0.0104,0.0139,0
2769,-0.0557,0.0224,9.5919,0.0469,-0.0321,-0.0296,0
2789,0.0807,0.1159,9.9752,-0.0089,0.0178,-0.0321,0
2809,0.1437,0.2007,10.0765,0.0089,-0.0162,0.0071,0
2829,-0.0883,-0.0041,9.9378,0.0373,-0.0065,-0.0238,0
2849,0.0319,-0.1499,9.772,-0.0033,0.03,0.0403,0
2869,0.0503,-0.0203,9.5333,0.0098,-0.0086,0.0178,0
2889,0.0076,0.0997,10.014,0.0055,0.0522,-0.0246,0
2909,-0.2201,0.0196,9.9167,0.0189,0.0078,0.0308,0
2929,-0.1445,-0.0416,9.9662,0.0081,0.0601,0.0152,0
2949,-0.0821,-0.0715,9.885,0.015,0.0112,-0.0039,0
2969,-0.0484,0.0506,9.6143,0.0079,0.0528,-0.0319,0
2989,-0.1173,0.1197,9.5701,-0.0294,0.0398,0.0015,0
3010,-0.0063,0.1869,9.826,-0.0364,-0.0202,-0.0593,0
3030,-0.1064,-0.4412,9.645,-0.0113,-0.0047,-0.007,0
3050,-0.0931,0.0853,9.7507,0.0402,0.0121,0.0194,0
3070,0.0568,0.0276,9.9638,-0.0492,0.0141,0.0429,0
3090,-0.1892,0.0439,9.5586,-0.0447,0.0504,-0.0058,0
3110,0.0021,0.1307,9.9912,0.0673,0.0173,-0.0007,0
3130,0.025,0.1748,9.8574,0.0574,0.0346,-0.0465,0
3150,0.012,0.044,9.7377,0.0378,0.033,-0.0413,0
3170,-0.1403,0.1092,9.9204,-0.0236,0.0426,-0.0324,0
3190,-0.1397,0.2161,9.9339,-0.0182,0.0428,0.0197,0
3210,0.1101,-0.1989,9.9712,0.0416,-0.0178,-0.022,0
3230,-0.1779,-0.1033,9.4226,0.0314,-0.0014,-0.0017,0
3250,0.0588,0.1927,10.0738,0.0017,-0.0354,0.0043,0
3270,0.0801,0.0232,9.9793,-0.0747,0.0055,0.0494,0
3290,-0.1059,0.0298,9.8308,-0.0473,-0.0209,0.0,0
3311,0.1451,0.2284,9.5499,-0.0,0.0207,0.0037,0
3331,-0.0803,0.0788,10.0959,-0.0647,0.0263,-0.0057,0
3351,0.1503,0.3614,9.7693,0.0312,-0.0236,-0.0132,0
3371,-0.1023,0.1663,9.4604,0.0083,-0.0031,-0.0378,0
3391,-0.0869,-0.0266,9.8966,-0.0211,0.0333,0.0048,0
3411,0.2432,0.0423,9.7885,0.0482,-0.0242,-0.0168,0
3431,-0.1698,-0.0972,9.6726,-0.0028,-0.014,-0.0102,0
3451,0.0327,0.0727,9.9818,0.0047,0.0089,-0.0186,0
3471,-0.1671,-0.1236,9.9219,0.0295,-0.0143,-0.0195,0
3491,-0.0247,-0.026,9.7508,-0.0274,-0.0231,-0.0232,0
3511,-0.2865,-0.1551,34.9937,0.0121,3.2141,-0.0127,1
3531,-8.5194,-10.1892,30.7606,0.6779,2.755,0.8732,1
3551,-13.0679,-17.7729,23.7781,1.2066,2.1965,1.4574,1
3571,-12.9942,-22.6454,15.7858,1.5562,1.5931,1.3936,1
3591,-9.5405,-24.9631,8.3231,1.665,0.9996,1.0325,1
3612,-3.9386,-24.3793,2.5435,1.6424,0.3502,0.4189,1
3632,1.8261,-22.3666,-0.7727,1.5047,-0.1853,-0.2075,1
3652,5.7582,-18.8554,-1.7918,1.2875,-0.5341,-0.6418,1
3672,7.5508,-14.6976,-1.2964,0.9544,-0.8585,-0.8073,1
3692,6.7296,-9.993,2.1236,0.6818,-0.9855,-0.6635,1
3712,4.3516,-5.3601,4.9373,0.3355,-1.095,-0.4748,1
3732,1.0714,-1.1871,8.4022,0.1212,-0.9751,-0.0998,1
3752,-1.9284,2.1801,12.0278,-0.1569,-0.9078,0.2295,1
3772,-3.837,5.1664,13.6292,-0.3114,-0.7794,0.4369,1
3792,-4.2004,6.8003,15.1693,-0.4012,-0.5349,0.4727,1
3812,-3.2145,7.6967,15.2654,-0.5119,-0.3634,0.3786,1
3832,-2.0306,7.6469,14.1107,-0.5117,-0.1788,0.1882,1
3852,0.0052,7.2414,13.1489,-0.4837,0.0366,-0.0001,1
3872,1.5132,6.2718,11.0434,-0.4597,0.0595,-0.1649,1
3892,2.136,4.942,9.6098,-0.3028,0.2592,-0.2396,1
3913,1.919,3.5982,8.1613,-0.2701,0.288,-0.2326,1
3933,1.772,1.9869,7.5218,-0.1475,0.3572,-0.1409,1
3953,0.5322,0.8022,7.5012,-0.0344,0.3424,-0.0522,1
3973,-0.1512,-0.5005,7.3589,0.0022,0.2772,0.023,1
3993,-1.1862,-1.2466,7.8057,0.0554,0.2271,0.0585,1
4013,-1.3378,-1.9147,8.4787,0.0775,0.2044,0.133,1
4033,-0.8661,-2.4115,9.3167,0.1268,0.1765,0.0654,1
4053,-0.9339,-2.2092,10.0681,0.1708,0.0772,0.0955,1
4073,-0.5004,-2.133,10.8867,0.1953,0.0295,0.0232,1
4093,0.521,-2.2619,10.8664,0.1356,-0.0097,-0.0575,1
4113,0.4013,-1.7054,11.1342,0.1582,-0.0575,-0.0788,1
4133,0.4121,-1.4291,10.9099,0.0758,-0.1116,-0.0941,1
4153,0.5274,-0.8296,10.3515,0.0766,-0.1284,-0.0431,1
4173,0.3473,-0.4577,9.9552,-0.0042,-0.1033,-0.063,1
4193,0.0856,-0.1475,9.6355,-0.0435,-0.0933,-0.0395,1
4214,-0.0878,-0.0261,9.7169,0.0311,0.031,-0.0121,1
4234,-0.0881,0.0534,9.6548,-0.0236,-0.0127,-0.0012,1
4254,0.1512,0.1159,9.2573,0.0484,0.0389,0.0191,1
4274,-0.0177,0.0811,9.6477,0.0374,0.0103,-0.0331,1
4294,-0.0034,-0.0315,9.5369,-0.0451,-0.0546,0.0587,1
4314,0.1386,-0.2153,9.8237,0.0418,0.0091,0.0458,1
4334,-0.0233,0.1116,9.8102,-0.0862,-0.0004,-0.0204,1
4354,-0.2617,-0.1258,9.9331,0.0247,0.0571,0.0217,1
4374,-0.1717,0.302,9.9489,0.0115,-0.0246,0.0044,1
4394,-0.0263,-0.1147,9.6197,0.0171,-0.0465,-0.0157,1
4414,0.0338,0.182,9.9803,-0.0061,0.0143,-0.051,1
4434,0.0232,0.049,9.8222,-0.0189,0.0107,-0.0085,1
4454,-0.0624,0.0192,9.9162,-0.0189,-0.0071,-0.0056,1
4474,-0.367,0.0591,9.9107,-0.0154,0.0246,-0.0124,1
4494,-0.1113,0.0278,9.7289,-0.0063,-0.033,-0.0126,1
4515,-0.0981,-0.1557,9.5763,0.0544,-0.0117,0.0459,1
4535,0.0507,-0.0953,10.0535,0.0349,-0.027,-0.0054,1
4555,0.1089,0.1006,9.8066,-0.0406,-0.0082,-0.0181,1
4575,0.1677,-0.0715,9.6189,0.006,-0.026,-0.0393,1
4595,-0.1213,0.0037,9.9157,0.038,0.0027,0.0091,1
4615,0.2624,0.0119,9.899,0.0127,-0.0773,-0.0126,1
4635,0.1038,0.1893,9.6744,0.0143,-0.0525,-0.0251,1
4655,0.0558,-0.0895,9.8776,-0.0018,-0.0116,-0.0002,1
4675,0.1657,0.1626,9.864,-0.024,-0.013,0.0592,1
4695,-0.1347,0.174,9.8411,-0.0541,0.0025,0.0023,1
4715,0.1412,-0.1621,9.7924,0.0141,-0.0205,-0.0363,1
4735,-0.0238,-0.1421,9.5624,-0.0193,0.0357,0.0466,1
4755,-0.0458,0.1228,9.6102,0.0213,0.0462,-0.0249,1
4775,-0.188,0.1528,10.1408,-0.0194,-0.0075,0.0073,1
4795,0.338,-0.1195,10.0288,0.0249,0.0207,0.042,1
4816,-0.0965,-0.07,9.8149,-0.0223,0.0114,-0.0016,0
4836,0.0873,0.0098,9.7008,-0.0287,-0.016,-0.0308,0
4856,0.1297,0.2141,9.8476,-0.0166,0.0494,0.0028,0
4876,-0.2275,-0.2911,9.7655,0.0181,-0.0135,0.0092,0
4896,0.0221,-0.0621,10.0165,-0.0275,-0.0471,0.0126,0
4916,0.286,-0.0599,9.8714,0.0352,-0.0108,-0.0326,0
4936,-0.1484,-0.0247,10.0791,0.0031,0.0018,0.0043,0
4956,0.3076,0.0256,9.7021,0.0184,-0.0712,-0.0227,0
4976,-0.1345,-0.1026,10.0165,-0.0119,0.0686,-0.0088,0
4996,-0.0149,-0.124,9.7703,0.004,-0.0322,-0.0471,0
5016,-0.001,0.0427,9.5211,0.0512,-0.0082,-0.0208,0
5036,-0.0655,-0.1412,9.7043,-0.0141,0.0013,-0.0336,0
5056,0.122,0.1328,10.0743,0.026,0.0359,-0.0297,0
5076,0.1608,-0.108,9.4565,-0.0175,0.0336,0.0165,0
5096,-0.0994,-0.1558,9.5165,0.0173,-0.0258,-0.0214,0
5117,0.0446,0.014,9.876,-0.0207,-0.0134,0.0074,0
5137,0.0126,-0.0586,9.9169,-0.0125,0.0315,0.0095,0
5157,0.0327,-0.048,10.2695,0.0109,-0.0045,0.0163,0
5177,0.2705,0.1159,9.9901,0.0546,-0.0182,0.0123,0
5197,0.1394,-0.0091,9.5869,0.0155,0.0278,0.0185,0
5217,-0.106,-0.0399,9.8266,-0.0086,0.021,0.0561,0
5237,-0.0543,-0.0178,9.8348,-0.0029,-0.0425,0.0476,0
5257,0.1403,-0.1438,9.5929,-0.0168,0.0065,0.0107,0
5277,-0.1147,-0.144,9.622,-0.0444,-0.0137,0.0031,0
5297,0.1969,0.0823,9.9715,0.0421,0.0048,-0.0327,0
5317,0.3349,-0.1489,9.4298,0.0166,0.0157,0.0335,0
5337,0.1758,0.026,9.8947,-0.0283,0.0197,-0.005,0
5357,0.196,-0.2315,9.6205,-0.0257,-0.007,0.0029,0
5377,-0.1319,0.0663,9.7836,-0.0308,0.0054,-0.0001,0
5397,0.0197,0.252,9.7991,-0.0172,-0.0014,0.0012,0
5418,0.1136,0.0605,10.1825,-0.0616,-0.0249,-0.0212,0
5438,-0.0986,-0.0597,9.6259,-0.0435,0.0093,0.0427,0
5458,-0.2434,0.1783,9.8844,-0.0332,-0.0012,0.0269,0
5478,-0.2335,-0.1922,9.8398,-0.0275,-0.0601,0.0113,0
5498,-0.0847,0.0054,10.0137,0.0141,-0.0438,-0.0068,0
5518,-0.1761,0.1537,9.4523,0.0027,-0.032,-0.0299,0
5538,0.1331,0.4277,9.8331,-0.0011,0.0358,-0.0194,0
5558,0.1945,-0.1638,9.8654,-0.0273,0.0476,0.017,0
5578,0.1158,-0.0418,9.727,0.0106,-0.0511,-0.0463,0
5598,0.4274,0.3128,9.8701,-0.0165,0.0449,0.0534,0
5618,-0.1197,-0.0316,10.4206,0.0126,-0.0022,-0.0165,0
5638,0.0415,0.0873,9.7581,-0.0096,-0.0068,-0.01,0
5658,0.2723,-0.081,10.231,-0.056,-0.0284,-0.0272,0
5678,-0.3087,-0.0979,9.9217,-0.0152,-0.017,0.0011,0
5698,-0.1199,0.0411,10.0842,0.0194,0.0017,0.0167,0
5719,0.0002,-0.1668,9.8829,-0.0026,-0.0187,-0.0411,0
5739,0.1559,-0.089,9.5878,0.0339,-0.0046,-0.0302,0
5759,-0.0817,-0.1545,9.8477,0.0107,0.0159,0.0375,0
5779,0.2408,-0.0505,9.8072,0.001,0.0041,-0.0309,0
5799,0.3596,0.0031,9.6493,-0.0587,-0.0409,-0.023,0
5819,-0.2796,0.096,9.5769,0.0106,-0.0309,-0.0355,0
5839,-0.0232,-0.0836,9.948,-0.0008,-0.0004,0.0143,0
5859,-0.1689,-0.0581,9.4411,-0.0116,0.0036,-0.0201,0
5879,-0.1824,0.0617,9.6053,0.0026,0.0308,-0.0172,0
5899,-0.1259,-0.2837,9.9146,-0.0069,-0.0034,0.0008,0
5919,-0.1265,-0.0866,9.6848,0.0017,0.0307,0.0343,0
5939,-0.016,-0.1462,9.8963,-0.0225,-0.0039,0.0061,0
5959,0.1485,0.1267,9.7184,0.0576,0.0373,0.0045,0
5979,0.074,-0.1844,9.688,-0.0219,-0.0303,-0.0009,0
6000,-0.1354,-0.1443,9.5459,0.0028,0.0103,-0.032,0
