timestamp_ms,ax,ay,az,gx,gy,gz,label
0,0.159,-0.2029,9.9084,-0.0006,-0.0288,-0.0524,0
20,-0.0499,0.0807,9.8352,-0.0014,0.0116,-0.0252,0
40,-0.0557,-0.0033,10.106,0.0164,0.0305,-0.0151,0
60,-0.1428,0.1675,9.7352,-0.0338,0.0154,0.0562,0
80,-0.0017,-0.0489,9.6606,0.018,-0.0404,0.005,0
100,0.2332,-0.1827,9.8687,0.0665,-0.0085,-0.0483,0
120,-0.0634,0.0964,9.942,-0.02,0.0054,0.0192,0
140,0.23,0.2234,9.8271,0.0247,0.0074,0.0082,0
160,0.1179,0.0317,9.5856,0.0292,-0.0188,0.0307,0
180,0.0291,-0.2195,9.8071,-0.04,-0.0442,0.0529,0
200,-0.0289,-0.1907,10.0908,-0.0498,-0.0317,-0.0039,0
220,0.0934,0.2247,9.6216,-0.0381,0.0261,0.0307,0
240,-0.1623,-0.1887,9.6893,-0.0375,-0.0032,-0.0081,0
260,-0.0411,0.0388,10.1473,0.0085,-0.0179,-0.0311,0
280,-0.0266,-0.1485,9.7949,-0.0306,-0.0301,0.0602,0
301,-0.0217,-0.2264,9.6746,-0.0216,-0.0308,0.0207,0
321,0.1134,-0.2607,9.518,-0.0573,-0.0054,-0.0034,0
341,0.0085,0.0304,9.8794,-0.0336,-0.0045,-0.0293,0
361,0.086,-0.2378,9.8562,0.0014,0.0205,0.0132,0
381,-0.1651,-0.0146,9.499,0.0101,0.0291,-0.044,0
401,-0.2562,-0.1355,9.7684,-0.0243,-0.0567,0.0178,0
421,-0.0104,-0.401,10.0817,-0.041,0.0046,0.0251,0
441,0.035,0.112,9.6816,-0.0134,0.0362,0.0218,0
461,0.0559,-0.0125,9.7198,0.0081,0.034,0.0236,0
481,-0.1057,0.0073,9.4445,0.0094,-0.0093,0.0111,0
501,0.1953,0.1543,9.8137,0.0067,-0.0154,-0.0703,0
521,-0.0349,0.0321,9.9249,0.0109,-0.0213,-0.0131,0
541,0.2827,0.0847,9.7908,-0.0543,0.0341,-0.0043,0
561,-0.1178,-0.04,9.6779,-0.0653,0.0402,0.0125,0
581,-0.0435,0.1709,9.7941,0.0241,-0.0005,-0.0269,0
602,0.2262,-0.1109,9.8209,-0.041,0.0201,-0.0188,0
622,-0.1378,0.1894,10.2182,0.0159,-0.0283,-0.0017,0
642,0.0211,0.077,9.9072,-0.0114,-0.061,-0.0236,0
662,0.064,0.173,10.0013,0.026,0.015,0.0136,0
682,-0.0824,0.1823,9.7076,0.0033,-0.0467,-0.0002,0
702,0.3199,-0.1959,9.8382,-0.0278,0.0108,0.0025,0
722,-0.0276,0.107,9.3358,0.0525,0.0062,-0.0065,0
742,0.0969,0.0288,9.8515,0.001,0.0396,-0.0055,0
762,-0.3557,0.0618,9.8779,0.0034,0.0538,0.0113,0
782,0.2542,0.0352,9.6703,0.0049,-0.0095,0.0442,0
802,0.1733,-0.1508,9.7216,0.0207,0.0169,0.0033,0
822,0.2107,-0.1791,9.7751,-0.0783,0.0082,0.0008,0
842,0.2539,-0.0075,9.7029,0.0182,-0.029,-0.0078,0
862,-0.1211,0.0021,9.5397,-0.0358,0.0288,-0.0263,0
882,0.1859,-0.3636,10.2556,0.0483,0.0009,-0.004,0
903,-0.1994,-0.179,9.8209,-0.0565,0.0063,-0.0438,0
923,-0.0284,-0.1448,9.8408,-0.0352,-0.0282,-0.0525,0
943,-0.1285,0.0217,9.5884,-0.0106,-0.0429,-0.0331,0
963,0.0622,-0.0477,10.0133,0.0482,0.001,-0.032,0
983,-0.1053,0.0671,9.6045,0.0386,0.0017,0.0015,0
1003,-0.1293,-0.0472,9.8228,-0.0448,-0.068,0.0465,0
1023,0.0184,-0.1423,9.6009,-0.0255,0.0288,-0.0238,0
1043,-0.0036,0.0769,9.7033,0.0261,0.0388,-0.0268,0
1063,-0.0714,0.0827,9.7406,0.0064,0.0129,-0.0253,0
1083,-0.3667,-0.0753,9.8299,0.0229,-0.0321,0.0153,0
1103,-0.119,-0.1768,10.0563,0.0152,0.0047,-0.0104,0
1123,0.0631,0.129,9.8697,0.052,0.0376,-0.0125,0
1143,0.1676,0.0248,9.9316,0.0145,0.0054,0.0149,0
1163,-0.0389,0.1266,9.4797,0.0034,0.0172,-0.036,0
1183,0.007,-0.1114,10.2348,-0.012,0.0535,-0.0368,0
1204,-0.0087,0.0182,9.5623,-0.0194,-0.0152,-0.0271,0
1224,0.0861,-0.0293,9.8525,-0.0044,-0.0054,-0.0374,0
1244,0.1336,0.057,9.8553,-0.0208,0.0121,-0.0249,0
1264,-0.0556,-0.2178,9.9051,-0.0917,-0.0281,0.0091,0
1284,0.2439,-0.1582,10.0878,0.0346,0.0721,-0.0113,0
1304,0.1343,0.0077,9.6763,0.0366,0.0002,0.0347,0
1324,0.1248,0.0242,9.8142,-0.0083,-0.0275,0.0058,0
1344,0.0546,0.1442,9.8063,-0.0379,-0.0055,-0.0131,0
1364,0.0568,0.3357,9.5793,-0.0035,-0.0144,-0.0367,0
1384,0.1662,0.1863,9.7393,0.0198,-0.0226,-0.0622,0
1404,0.0897,-0.0744,9.8069,0.0165,0.0005,0.0176,0
1424,-0.0866,-0.1182,9.9877,0.0109,-0.0141,-0.0156,0
1444,0.1478,-0.0231,9.9589,-0.0891,-0.0174,-0.0339,0
1464,-0.0121,0.1191,9.811,-0.0421,0.0259,-0.0001,0
1484,0.0656,-0.0617,9.6243,-0.0184,-0.0205,-0.0218,0
1505,0.001,0.0157,9.903,-0.0141,-0.0821,-0.0101,0
1525,-0.2417,-0.147,10.0273,0.0406,-0.0295,-0.0482,0
1545,0.2509,-0.0897,10.0005,-0.035,0.0218,0.0343,0
1565,-0.146,-0.0149,9.8498,-0.0394,-0.0342,-0.0302,0
1585,0.1205,0.2116,9.8333,-0.0947,0.0169,-0.0124,0
1605,-0.2373,0.2254,9.8291,0.0058,-0.0387,0.0034,0
1625,-0.1834,0.0072,10.0254,-0.024,-0.02,0.0355,0
1645,-0.0315,-0.0627,9.3935,-0.0066,-0.0021,-0.0251,0
1665,0.0143,-0.0791,9.9042,0.0027,-0.0367,0.0013,0
1685,0.0793,-0.2467,9.7478,-0.0172,0.0209,0.0056,0
1705,-0.0305,0.2979,9.6738,0.0215,0.0182,0.0142,0
1725,0.1114,-0.3535,9.7403,0.0176,0.001,-0.0293,0
1745,0.128,0.3603,9.6172,-0.006,-0.0144,-0.0117,0
1765,-0.2418,0.1449,9.6273,-0.0109,-0.0351,-0.0118,0
1785,0.2674,-0.0071,10.0475,0.0347,0.0118,-0.038,0
1806,-0.1596,0.0072,9.6262,0.0301,0.0243,-0.0349,0
1826,-0.0261,-0.0887,9.8547,0.0225,-0.0198,0.0227,0
1846,-0.0616,-0.1395,9.6463,-0.0014,-0.0358,-0.067,0
1866,-0.2013,-0.1443,9.7056,-0.0088,-0.031,-0.017,0
1886,-0.1369,-0.1499,9.356,0.0259,-0.0181,0.0506,0
1906,-0.03,0.0279,9.8722,-0.038,0.0403,0.0017,0
1926,0.0792,0.2946,9.7543,-0.0128,-0.0283,-0.0092,0
1946,-0.0483,0.0815,9.5909,0.0373,-0.013,0.0235,0
1966,0.0417,-0.1641,9.8688,0.0722,-0.0558,-0.0279,0
1986,-0.0656,-0.148,9.9993,0.0262,0.0165,0.0102,0
2006,-0.1236,-0.1899,10.2126,0.0165,0.0588,-0.0138,0
2026,-0.2322,0.2186,9.7521,0.019,-0.0358,-0.0084,0
2046,-0.018,0.1386,9.3716,-0.0363,0.0047,0.0224,0
2066,-0.2421,0.1641,9.8462,-0.0144,0.0079,-0.0007,0
2086,0.0652,0.1427,9.8063,-0.0176,0.0337,0.0134,0
2107,-0.1766,-0.0004,9.7074,0.0268,-0.0633,-0.0462,0
2127,0.1624,0.0192,9.6801,0.0112,-0.0513,0.0209,0
2147,-0.3603,0.0514,9.8405,-0.0444,-0.0125,0.0063,0
2167,0.1673,-0.0628,9.6162,0.0076,0.0337,-0.0197,0
2187,-0.0581,-0.0743,9.9356,-0.0246,0.0139,0.0071,0
2207,-0.1869,-0.1074,9.8981,0.0621,0.0583,-0.0212,0
2227,0.0141,0.0281,9.9815,0.0223,0.0062,-0.0017,0
2247,0.0125,0.0003,9.887,-0.0215,0.0387,0.0211,0
2267,-0.0187,-0.0056,9.8009,0.0326,0.0378,0.0409,0
2287,0.2571,-0.0218,9.9407,-0.0476,-0.0035,0.0077,0
2307,0.2316,0.0084,9.7839,0.0031,0.0548,0.032,0
2327,0.0919,0.1831,9.7794,0.006,-0.0399,0.0042,0
2347,0.0922,0.1264,9.8363,0.0125,-0.0314,0.0083,0
2367,-0.1073,0.1212,9.8146,-0.0091,0.0141,-0.043,0
2387,-0.0185,-0.0112,9.8618,-0.0098,-0.0226,-0.0766,0
2408,0.0384,0.0618,9.9046,-0.0054,0.0383,0.013,0
2428,-0.2256,-0.0046,9.6858,0.0994,0.0373,0.0048,0
2448,0.0018,-0.2194,9.8788,-0.0011,0.0114,0.0293,0
2468,-0.0332,-0.0737,9.9215,-0.0222,0.0305,-0.0377,0
2488,-0.1752,0.1761,9.9619,-0.0231,0.026,-0.0312,0
2508,0.0012,0.0723,9.9068,-0.0064,-0.0348,-0.0027,0
2528,-0.1359,0.0204,9.9792,-0.0375,-0.0223,0.0048,0
2548,0.033,0.1286,9.9235,0.0451,0.0072,-0.0368,0
2568,0.1069,-0.0772,9.8636,-0.0112,-0.0205,0.0452,0
2588,0.1133,-0.3664,9.776,0.029,-0.0137,-0.0125,0
2608,0.1416,0.0851,9.8672,-0.0455,0.038,0.0191,0
2628,0.1768,0.0479,9.8744,0.0226,-0.0075,-0.0225,0
2648,-0.0518,0.0418,9.8815,0.0092,0.0059,-0.0081,0
2668,-0.0594,0.017,9.5538,0.0153,-0.0035,-0.0302,0
2688,-0.0528,-0.2694,9.705,-0.0566,0.0275,-0.0076,0
2709,-0.0417,-0.2312,9.3841,-0.0221,-0.016,-0.0519,0
2729,-0.0229,0.0565,9.6391,0.0522,-0.032,0.0498,0
2749,0.1786,0.2243,9.9473,0.0182,0.0172,-0.0104,0
2769,0.0456,0.0255,9.8102,0.0141,-0.0348,0.0057,0
2789,-0.3147,-0.0972,9.6538,-0.0072,0.023,-0.0117,0
2809,-0.0214,-0.1611,10.0964,0.0114,-0.0392,0.0005,0
2829,0.3025,0.0065,10.1511,-0.0329,0.0099,0.0049,0
2849,-0.0301,-0.0864,9.767,-0.0213,-0.0083,0.034,0
2869,0.2673,-0.0268,9.894,-0.0472,-0.0165,-0.0127,0
2889,0.1199,-0.3224,9.7349,-0.0119,0.0474,0.0404,0
2909,-0.143,-0.0458,9.9384,-0.0247,-0.0123,-0.0528,0
2929,0.299,0.1852,9.977,0.0112,0.0124,-0.0041,0
2949,0.1943,-0.0989,9.7443,-0.02,0.0355,-0.0056,0
2969,-0.3131,0.0801,9.7044,0.0195,-0.0004,0.0635,0
2989,-0.1574,0.1853,10.0311,0.0274,-0.0083,-0.013,0
3010,0.0646,-0.0344,9.5913,-0.0071,-0.0126,-0.0084,0
3030,0.0429,0.1159,9.6868,0.0032,-0.0504,-0.0289,0
3050,0.1009,0.2874,10.0053,-0.0422,0.0019,-0.0189,0
3070,-0.1451,-0.1889,10.0439,-0.0243,0.0213,-0.0384,0
3090,-0.0818,0.0544,9.6021,0.0484,-0.0073,0.0152,0
3110,-0.2262,0.2742,10.0249,-0.0169,0.0026,-0.0764,0
3130,0.1989,-0.1717,9.5104,-0.0474,0.0575,0.0275,0
3150,-0.0929,0.2188,9.3308,0.0356,-0.0402,0.0115,0
3170,0.0829,-0.1588,9.8156,-0.0651,0.0634,0.0055,0
3190,-0.1154,0.0337,9.7674,-0.0131,-0.0189,-0.0152,0
3210,0.0172,-0.288,9.8514,0.0004,0.0558,0.0463,0
3230,0.0934,0.0419,9.8068,-0.0285,0.011,0.0296,0
3250,0.0328,-0.0718,9.6509,-0.0147,0.0114,-0.0057,0
3270,0.1119,-0.0905,9.6944,-0.0095,-0.0076,-0.0137,0
3290,0.0968,-0.214,9.8324,0.0081,-0.0203,-0.0258,0
3311,0.1639,0.0148,9.7565,0.0135,-0.027,-0.006,0
3331,0.1974,-0.0431,9.7075,0.0041,0.0179,0.0358,0
3351,0.07,0.2801,9.8055,-0.0179,-0.0153,-0.0037,0
3371,-0.0153,-0.1904,9.6677,-0.0222,-0.0552,-0.0073,0
3391,-0.0221,-0.0138,9.5321,-0.0076,0.0136,0.0276,0
3411,0.0569,0.2884,9.7027,0.0371,0.0174,-0.0187,0
3431,-0.249,-0.0886,9.7859,-0.0168,0.028,0.0182,0
3451,0.0342,-0.2366,9.9312,0.0151,-0.0414,-0.0523,0
3471,0.1745,0.2265,10.0896,-0.0446,-0.0067,-0.0244,0
3491,0.2389,-0.0333,9.6287,0.0007,0.0269,-0.0208,0
3511,-0.1238,-0.0793,34.8,0.0026,3.2155,-0.0227,1
3531,-8.6597,-10.3939,30.8845,0.6573,2.782,0.93,1
3551,-13.2094,-18.1308,23.4573,1.2176,2.2306,1.3854,1
3571,-13.1889,-22.8247,15.489,1.498,1.5491,1.4416,1
3591,-9.384,-24.9891,8.3653,1.6377,0.8732,1.0514,1
3612,-4.0409,-24.7635,2.2897,1.6397,0.2891,0.4689,1
3632,1.645,-22.4612,-0.6526,1.53,-0.151,-0.2175,1
3652,5.6273,-18.7649,-2.0904,1.2987,-0.5586,-0.6343,1
3672,7.4782,-14.4878,-0.7419,0.9711,-0.8543,-0.8096,1
3692,6.8493,-10.1994,1.5795,0.6746,-1.0318,-0.7507,1
3712,4.2269,-5.5659,5.2269,0.3208,-1.015,-0.4637,1
3732,0.8906,-1.1966,8.9091,0.0759,-0.9957,-0.1219,1
3752,-2.1233,2.2612,12.0699,-0.126,-0.9183,0.2415,1
3772,-3.7918,4.7733,13.8856,-0.3213,-0.7301,0.3605,1
3792,-3.8768,6.5053,15.2885,-0.4285,-0.5308,0.4778,1
3812,-3.3765,7.7309,15.4948,-0.5251,-0.3029,0.3629,1
3832,-1.6435,7.9296,14.3245,-0.496,-0.2163,0.201,1
3852,0.121,7.2389,12.8589,-0.5033,0.0401,-0.0015,1
3872,1.3389,6.2661,11.2495,-0.4707,0.1358,-0.1613,1
3892,2.1581,5.0213,9.8974,-0.3747,0.219,-0.166,1
3913,2.22,3.6598,8.8026,-0.2993,0.3291,-0.3029,1
3933,1.6529,2.4408,7.6568,-0.1517,0.3493,-0.1692,1
3953,0.756,0.8744,7.3752,-0.0226,0.3519,-0.032,1
3973,-0.4346,-0.3391,7.7778,0.0055,0.3099,0.0222,1
3993,-1.0831,-1.3669,8.0365,0.0755,0.2172,0.1171,1
4013,-1.5074,-1.9399,8.6614,0.1526,0.2326,0.1067,1
4033,-1.3038,-2.3845,9.4492,0.1407,0.1789,0.1219,1
4053,-0.9081,-2.1919,10.3541,0.2018,0.0763,0.0332,1
4073,-0.0629,-2.3419,11.0451,0.1467,-0.0075,0.0313,1
4093,0.2908,-2.3658,11.1151,0.1261,-0.0443,-0.0289,1
4113,0.5149,-1.6745,10.8227,0.1447,-0.0612,-0.0534,1
4133,0.7219,-1.0834,10.7975,0.1014,-0.1268,-0.1075,1
4153,0.4154,-1.1327,11.0098,0.0516,-0.0584,-0.0333,1
4173,0.3001,-0.5382,10.368,0.0149,-0.049,-0.0362,1
4193,0.0288,-0.1583,9.5533,-0.0369,-0.1075,0.069,1
4214,0.1113,0.0483,9.6844,0.0125,0.0097,0.024,1
4234,-0.1579,-0.1133,9.7458,-0.0094,0.0069,-0.0177,1
4254,0.0101,-0.0613,9.822,-0.0252,-0.0458,0.0056,1
4274,0.0092,-0.0587,9.5769,0.0143,-0.0326,-0.0229,1
4294,-0.0917,-0.0962,9.7826,-0.011,-0.0008,0.0032,1
4314,0.2439,-0.1515,9.7493,-0.0098,-0.0412,0.001,1
4334,-0.161,0.2463,10.0256,0.0288,0.024,-0.0263,1
4354,0.0936,0.3786,9.9092,0.0057,-0.0263,-0.0125,1
4374,-0.0161,-0.2026,9.7535,0.059,0.0307,-0.0079,1
4394,0.036,0.2623,10.0812,-0.0403,0.0083,-0.017,1
4414,0.1228,-0.1295,10.0033,0.027,-0.0062,-0.0083,1
4434,-0.1397,0.0951,9.7136,-0.0097,0.0009,0.0238,1
4454,-0.0908,-0.0265,9.6248,-0.0284,0.0351,0.0196,1
4474,0.0733,0.2197,9.9279,0.0144,0.0538,0.015,1
4494,0.0826,0.1702,9.6599,-0.054,-0.0045,-0.0335,1
4515,-0.1627,-0.0896,9.5693,-0.0006,-0.01,-0.0481,1
4535,0.0505,-0.1338,9.8847,-0.0269,-0.0003,-0.0463,1
4555,0.0555,0.0873,9.9941,-0.0297,0.0226,-0.0314,1
4575,0.0355,0.0085,9.5755,-0.0384,0.0339,0.0673,1
4595,0.0744,0.0934,9.9691,-0.0157,-0.0329,-0.0034,1
4615,0.1545,-0.1783,9.6033,0.0208,0.0257,-0.0777,1
4635,-0.2059,0.0974,9.5267,-0.0083,-0.0143,-0.002,1
4655,0.0832,0.203,10.1863,0.0326,-0.0084,0.0093,1
4675,0.3139,0.0481,9.6105,-0.0039,0.0178,-0.0134,1
4695,-0.1568,-0.0316,9.9788,-0.0027,0.0455,0.0466,1
4715,0.0916,-0.1083,9.7213,0.0255,0.0153,0.0266,1
4735,-0.0099,-0.358,9.7485,0.0347,-0.0055,0.0147,1
4755,0.0219,0.2635,9.9015,0.0022,-0.0061,-0.0086,1
4775,-0.1781,0.0273,9.9755,0.0354,0.0437,-0.02,1
4795,0.1389,-0.0226,9.7096,0.011,0.0296,0.0126,1
4816,-0.3962,0.2519,9.9858,-0.0196,-0.0154,-0.0338,0
4836,-0.1198,0.3186,9.8719,0.0444,-0.0097,0.0443,0
4856,0.0976,-0.1394,9.5504,0.027,0.0223,-0.0459,0
4876,-0.2111,0.3327,9.7204,0.0111,0.0382,-0.0179,0
4896,0.1443,-0.3974,9.7392,-0.0099,0.0373,0.0028,0
4916,0.0062,-0.0803,9.5439,0.0254,-0.0542,-0.0168,0
4936,-0.2451,-0.2875,10.0666,-0.0342,0.0771,-0.0402,0
4956,-0.2919,-0.3303,10.0526,0.0093,0.0542,0.0046,0
4976,0.2082,-0.1067,9.8467,-0.0217,0.0147,-0.0305,0
4996,0.0138,-0.0238,9.7087,0.0175,-0.0168,-0.0255,0
5016,0.0413,-0.2487,9.6945,-0.0208,-0.0734,-0.0718,0
5036,0.0312,-0.2169,9.7423,-0.0058,0.0052,0.023,0
5056,0.1159,-0.0737,9.5847,0.0421,0.0459,-0.0485,0
5076,-0.0886,-0.0731,9.9301,-0.0497,0.0205,-0.0207,0
5096,-0.1685,0.0387,9.7213,-0.0431,-0.041,0.0,0
5117,-0.1776,-0.0112,9.9973,0.0011,-0.0287,-0.0116,0
5137,-0.0381,-0.2027,9.8393,0.0069,0.0419,0.015,0
5157,-0.2337,-0.0343,9.7901,-0.0456,-0.0042,-0.0297,0
5177,0.0257,-0.0877,9.8715,0.0256,-0.0159,0.0162,0
5197,0.0228,-0.2738,9.8285,-0.0365,-0.036,0.005,0
5217,-0.0613,-0.2516,10.2069,0.0477,0.0132,-0.0284,0
5237,-0.1408,-0.1091,9.683,0.0143,0.0209,0.005,0
5257,-0.17,-0.0396,9.6171,0.0714,-0.0407,-0.0174,0
5277,-0.2856,-0.0653,9.9448,0.0369,0.0232,-0.0685,0
5297,-0.0474,0.3865,9.9369,-0.0302,-0.0329,0.0139,0
5317,0.0701,0.1545,9.7319,0.0094,-0.0065,0.0314,0
5337,0.1442,-0.0158,9.7285,0.0415,0.0464,0.0179,0
5357,0.3399,0.1153,9.8047,-0.0029,0.0291,0.0607,0
5377,0.2822,0.1287,9.8082,0.0208,-0.0493,-0.0007,0
5397,-0.1188,0.1225,9.9639,-0.0067,-0.0211,0.0237,0
5418,-0.1372,-0.2681,9.6739,0.01,-0.0027,0.0028,0
5438,0.2203,0.0831,10.0496,-0.0129,0.0611,0.0026,0
5458,0.0186,0.3369,9.515,0.0184,0.0083,-0.0228,0
5478,-0.2644,0.0159,9.6217,0.0047,-0.0284,-0.0532,0
5498,-0.0655,-0.2214,9.8999,0.0084,-0.0404,-0.0084,0
5518,-0.3872,-0.0938,9.5721,0.012,-0.0166,-0.0235,0
5538,0.2904,0.1873,9.6893,0.0166,-0.0005,0.0001,0
5558,0.0042,-0.2153,10.0869,-0.0203,-0.057,-0.0912,0
5578,0.0852,-0.1121,9.4079,0.0379,0.0308,-0.0788,0
5598,-0.1718,-0.0295,9.7919,0.0054,-0.0078,-0.0637,0
5618,-0.0537,-0.0638,9.5225,0.0045,0.0613,0.0362,0
5638,0.1189,-0.0314,9.3793,0.0331,0.0271,0.0124,0
5658,0.2049,0.1257,9.6404,0.0217,0.0157,0.0227,0
5678,0.0232,-0.0773,9.7571,-0.0735,0.0154,-0.0462,0
5698,0.0704,0.1424,9.9143,-0.0093,0.0312,-0.0131,0
5719,0.032,0.2013,9.5382,0.0396,-0.0212,-0.0131,0
5739,0.0195,-0.0225,10.3032,-0.0367,0.0127,0.0242,0
5759,0.1029,0.1502,9.6713,-0.0451,0.0071,-0.0161,0
5779,-0.15,-0.1848,9.8604,-0.0473,0.0005,-0.0414,0
5799,-0.0315,-0.0988,10.0583,-0.0126,-0.0522,-0.0264,0
5819,0.2555,-0.1127,9.7618,-0.0043,-0.0216,0.0096,0
5839,-0.08,0.016,10.0532,0.0409,0.0312,-0.0208,0
5859,-0.0141,0.0203,10.2672,-0.0106,-0.0166,-0.0065,0
5879,0.1536,0.0258,9.7732,0.007,-0.004,0.0019,0
5899,0.1686,-0.0502,9.8955,0.0129,0.0006,0.0282,0
5919,0.2161,0.2531,9.8335,0.0062,0.0011,0.045,0
5939,-0.1417,0.1606,9.7583,-0.0156,0.0091,0.0462,0
5959,-0.087,-0.431,10.0143,-0.0126,0.0294,0.0166,0
5979,-0.0492,0.037,9.8221,0.0195,-0.0219,0.0191,0
6000,0.1488,0.0554,9.9022,-0.0158,-0.0571,-0.0047,0
