timestamp_ms,ax,ay,az,gx,gy,gz,label
0,0.1627,0.1974,10.1447,-0.0158,0.024,0.0124,0
20,-0.0004,0.1629,9.6283,0.0669,-0.0033,0.0556,0
40,-0.0319,0.0804,9.6634,-0.0111,0.0282,-0.0046,0
60,-0.0636,-0.2738,9.6113,-0.0088,-0.0013,0.0237,0
80,0.0534,-0.1001,9.4921,-0.0012,-0.0086,0.0061,0
100,-0.3458,-0.0109,9.4713,-0.0417,-0.0027,0.0603,0
120,0.0927,-0.0425,10.1369,0.0098,0.0251,0.0315,0
140,0.2408,0.1327,9.5204,0.0571,0.0075,0.0548,0
160,0.0365,-0.0665,9.9588,-0.0387,0.0186,-0.006,0
180,-0.2155,0.0085,9.8259,-0.014,-0.005,-0.0099,0
200,0.1135,0.1106,9.9091,-0.0544,-0.0134,-0.0024,0
220,-0.0099,-0.0063,9.75,-0.043,0.0292,-0.0453,0
240,-0.1472,-0.1748,10.0823,0.028,-0.0214,0.005,0
260,-0.0655,-0.0037,9.967,0.0214,-0.0049,0.0189,0
280,0.0249,-0.1936,9.7421,-0.0088,-0.0082,-0.0134,0
301,0.1825,0.1791,9.8103,-0.0451,-0.0027,-0.0117,0
321,0.1791,-0.1494,9.3501,0.008,0.0634,-0.014,0
341,-0.0315,0.0605,9.8661,0.0121,0.0218,0.029,0
361,0.1118,0.145,9.6093,0.0233,0.0068,0.0311,0
381,0.2439,0.1292,9.676,-0.0605,-0.0038,0.0176,0
401,0.0306,-0.1289,9.7758,0.0191,0.0126,-0.0402,0
421,0.042,-0.0001,9.9858,-0.0606,-0.0223,-0.0315,0
441,0.103,0.02,10.0095,-0.0204,-0.0206,-0.0276,0
461,0.1325,0.0872,9.8908,-0.0256,0.0242,-0.0113,0
481,-0.08,0.0413,9.6946,0.0003,0.016,0.0406,0
501,-0.0927,-0.0096,9.7823,-0.0595,-0.0428,0.0494,0
521,-0.0259,-0.2856,9.8431,0.0355,0.0326,0.0494,0
541,0.2168,0.1072,9.5132,0.0377,0.0173,-0.0237,0
561,-0.152,0.1803,9.8843,-0.0105,-0.0084,0.0048,0
581,-0.0006,0.2837,9.7608,0.0279,0.0714,0.0502,0
602,0.0956,-0.1721,9.8932,0.0113,0.0344,-0.0351,0
622,0.0457,0.0294,10.1589,0.0615,0.0205,-0.0162,0
642,-0.0875,0.0535,9.9526,0.018,-0.0032,-0.0149,0
662,-0.1811,0.121,9.4019,0.0516,0.0014,0.0056,0
682,-0.0962,-0.1274,9.8452,-0.026,-0.0139,-0.011,0
702,-0.0639,-0.0142,9.4202,0.0375,0.0207,0.0123,0
722,-0.1228,0.255,9.8561,-0.014,0.0131,-0.0173,0
742,0.0113,0.1854,9.5265,0.0383,-0.0341,-0.0096,0
762,0.1039,0.2266,9.7934,0.0285,-0.0073,-0.0159,0
782,0.3858,0.0195,9.878,-0.0086,-0.0108,-0.0435,0
802,-0.0817,-0.0144,9.6911,-0.0514,0.0316,-0.0288,0
822,-0.0645,0.3412,9.4882,0.0308,-0.0332,0.0605,0
842,0.0221,-0.0272,9.987,0.0302,-0.0028,-0.008,0
862,0.079,-0.0026,10.253,0.0295,-0.0069,0.0269,0
882,-0.1036,-0.0419,9.6114,0.034,0.0295,0.014,0
903,0.1004,0.0498,9.6787,0.0136,-0.008,0.005,0
923,-0.0497,-0.0302,9.9458,-0.0268,-0.002,0.008,0
943,0.0907,-0.1546,9.4261,-0.0351,-0.0188,-0.0012,0
963,-0.1718,-0.0094,10.0725,0.0237,-0.0127,-0.0381,0
983,-0.0807,-0.0473,9.912,-0.0245,-0.017,-0.0232,0
1003,0.03,0.0515,9.7218,-0.0119,-0.0256,-0.0216,0
1023,0.1051,-0.1192,10.0826,0.0184,-0.0363,0.008,0
1043,-0.0426,-0.1189,9.9645,-0.0353,-0.0085,0.0313,0
1063,-0.0785,0.016,9.7231,-0.0143,-0.0212,0.0091,0
1083,0.1386,-0.3138,9.7031,-0.0447,-0.0125,0.0106,0
1103,0.0086,0.3611,9.9324,-0.0297,-0.057,-0.0256,0
1123,-0.0267,0.3935,9.7274,-0.0283,0.0159,0.012,0
1143,-0.0382,0.0394,9.6584,0.0174,-0.0134,0.0039,0
1163,0.2361,0.0076,10.14,0.0389,0.0126,-0.0372,0
1183,-0.1257,-0.0694,9.859,0.0215,0.0678,0.0165,0
1204,0.0422,-0.2597,10.1257,0.0079,-0.0202,-0.0132,0
1224,0.3201,0.1883,9.6223,0.0004,-0.0182,-0.0416,0
1244,0.1202,-0.1651,9.309,0.0004,0.0098,-0.0576,0
1264,0.1268,0.2548,9.8709,0.0439,0.0179,-0.0257,0
1284,-0.1985,-0.0739,9.9693,-0.0036,0.0255,0.0393,0
1304,-0.0616,0.1224,9.9555,0.0391,-0.0078,-0.0062,0
1324,-0.2697,0.2048,9.9633,-0.025,-0.0269,0.037,0
1344,0.0823,0.1558,9.7515,-0.0213,0.0096,0.0112,0
1364,0.0814,-0.0655,9.6758,0.0128,0.0275,0.0252,0
1384,-0.1235,-0.2727,9.6648,-0.0649,0.0033,0.0406,0
1404,0.1626,-0.0749,9.745,-0.022,-0.0573,0.0013,0
1424,-0.0263,-0.0596,9.4888,0.0032,0.0089,-0.0359,0
1444,0.0887,0.0649,10.097,0.0065,0.0172,-0.007,0
1464,-0.0064,0.1053,9.7385,0.0588,0.0471,0.0339,0
1484,-0.1932,-0.0843,9.3331,0.0613,0.0336,-0.0005,0
1505,0.1011,-0.0095,9.7749,0.0292,-0.0158,-0.0284,0
1525,0.1441,-0.1161,9.7237,-0.0249,-0.02,0.0137,0
1545,-0.0902,-0.0755,9.7303,0.0027,-0.0458,-0.0692,0
1565,0.3261,0.2567,9.5229,-0.0054,-0.0258,0.0138,0
1585,0.1232,-0.1216,9.9037,0.0351,0.0075,0.0436,0
1605,-0.1497,-0.2041,9.5788,0.0144,0.0055,0.0797,0
1625,0.0182,-0.0603,9.7482,-0.0014,-0.0431,-0.0216,0
1645,-0.0778,-0.0161,9.7986,-0.0114,-0.0412,-0.0181,0
1665,0.0651,-0.0506,9.8401,-0.0369,-0.0579,0.0022,0
1685,-0.1197,-0.0812,9.7832,0.0166,-0.0451,0.0081,0
1705,0.1394,0.0256,10.0705,0.0231,-0.0206,-0.0422,0
1725,-0.2031,0.032,9.8943,-0.042,-0.0245,0.0701,0
1745,-0.4624,-0.0141,9.9608,-0.0658,0.0099,-0.0597,0
1765,-0.311,0.2889,10.0473,-0.0636,0.0668,0.0061,0
1785,-0.0394,0.2898,9.8285,-0.0436,-0.0088,-0.0239,0
1806,-0.2184,0.0499,9.7199,-0.0061,0.0367,-0.0453,0
1826,0.1495,0.0392,9.999,0.0,-0.0299,0.0177,0
1846,0.0637,0.0526,9.846,-0.0133,0.0231,0.0449,0
1866,-0.0526,-0.2708,9.7694,-0.008,-0.0006,-0.0339,0
1886,-0.0593,0.2701,10.1843,0.0345,-0.0162,-0.0247,0
1906,0.0254,-0.1234,9.7623,0.048,0.034,0.0166,0
1926,-0.2397,0.2065,9.9325,-0.0058,0.0402,-0.0108,0
1946,0.0843,0.0488,9.6651,-0.0617,0.0243,0.0372,0
1966,0.1831,-0.0286,10.0471,0.0198,0.0217,-0.0413,0
1986,0.2163,0.0539,9.762,0.0307,0.0216,0.0028,0
2006,-0.1329,0.1034,9.784,0.0317,0.0026,-0.016,0
2026,-0.0634,0.1379,9.6078,0.0206,-0.0053,-0.044,0
2046,-0.1529,0.0777,9.8701,0.0572,-0.0005,0.05,0
2066,-0.0564,0.0175,9.9308,0.0387,-0.0526,0.0029,0
2086,-0.0342,-0.0161,9.7733,-0.0032,-0.0024,0.0409,0
2107,0.085,-0.0639,9.9126,-0.0421,-0.0226,-0.0023,0
2127,0.001,-0.3498,9.57,0.0021,0.0002,-0.0416,0
2147,0.0152,-0.2106,10.1138,-0.0326,-0.0123,-0.026,0
2167,0.2163,-0.1836,9.7933,0.0402,-0.0112,-0.0077,0
2187,0.2027,-0.0047,9.8458,0.0346,0.0136,-0.0326,0
2207,0.1212,0.0033,10.0499,0.0249,0.0134,-0.0111,0
2227,0.0187,0.1909,10.1007,0.0091,-0.0047,-0.02,0
2247,-0.1776,-0.1855,9.8086,-0.0318,-0.0198,0.0253,0
2267,0.1102,0.1892,10.0365,0.0663,0.0245,-0.0529,0
2287,0.1871,-0.1307,9.6972,-0.0395,-0.0335,0.0529,0
2307,0.0283,-0.3172,10.2159,0.0473,-0.0146,0.0064,0
2327,-0.0549,-0.1718,9.928,-0.0576,0.019,-0.0067,0
2347,0.3101,0.0429,9.8241,0.0164,-0.0122,-0.0211,0
2367,0.0018,-0.2556,10.0049,0.009,0.0117,0.0257,0
2387,0.0782,0.207,9.4225,0.0701,0.0244,-0.0413,0
2408,0.2259,0.3074,9.7453,-0.0101,-0.0217,-0.039,0
2428,-0.0194,-0.0977,9.8147,-0.0819,-0.0116,0.0195,0
2448,0.074,0.0686,9.2656,0.0403,0.0366,0.0174,0
2468,0.1859,0.0927,10.1764,-0.0264,0.046,-0.0518,0
2488,0.2938,0.0662,9.7192,-0.0254,-0.0021,0.0126,0
2508,-0.011,-0.2434,9.6922,-0.0219,-0.0339,0.0289,0
2528,-0.0372,0.1475,9.6937,0.0051,0.012,0.0367,0
2548,0.1449,-0.1751,9.8035,-0.0168,0.0112,-0.0085,0
2568,0.0696,-0.0018,9.8904,-0.0313,0.018,0.0589,0
2588,0.0167,-0.3007,9.9975,-0.0313,0.0541,0.0039,0
2608,-0.0451,0.3163,9.9067,0.0187,0.0215,0.0242,0
2628,0.0243,0.2414,9.8634,0.012,-0.0433,-0.0123,0
2648,0.0458,-0.1739,9.6276,-0.0242,0.0382,-0.0407,0
2668,-0.1665,-0.1176,10.059,0.0184,-0.0357,0.0371,0
2688,0.0588,0.2088,9.7025,-0.0266,0.0062,-0.009,0
2709,0.0913,0.0449,9.7732,-0.0177,-0.0558,0.0102,0
2729,0.1478,0.1453,9.7335,-0.0132,-0.0204,-0.0227,0
2749,-0.1192,0.1719,9.9905,-0.0206,0.0173,0.0196,0
2769,-0.0538,0.1072,9.9634,0.0053,0.0419,-0.0033,0
2789,0.1989,-0.2069,9.6543,-0.0154,0.0249,-0.0328,0
2809,-0.0569,0.0607,9.7671,0.0181,-0.0162,-0.0444,0
2829,-0.0288,0.0773,9.4155,-0.019,0.0217,0.004,0
2849,-0.1943,0.3199,9.927,0.0224,0.0093,0.0019,0
2869,-0.4173,-0.117,9.6593,0.0177,-0.0215,0.0154,0
2889,0.28,0.0137,9.7672,0.0031,0.0223,0.0349,0
2909,0.251,0.0169,9.5962,-0.0296,0.0101,-0.0047,0
2929,0.0634,-0.0216,9.7644,-0.0164,-0.0458,0.0089,0
2949,0.1711,0.1175,9.5183,-0.0019,-0.0164,0.0048,0
2969,-0.3839,-0.0028,9.9735,0.0481,0.0025,-0.0353,0
2989,-0.0748,-0.2369,9.8376,-0.003,-0.0102,0.035,0
3010,-0.0999,-0.27,9.8973,-0.0042,-0.0663,-0.0036,0
3030,0.2692,0.1176,9.5116,-0.0494,-0.027,-0.0024,0
3050,-0.186,0.2466,9.8538,-0.0021,-0.037,-0.0342,0
3070,-0.0281,-0.021,10.3606,0.0206,0.0532,-0.0032,0
3090,-0.0629,0.0857,9.5073,0.0346,0.0054,-0.0389,0
3110,-0.2238,0.1369,9.6549,-0.0637,-0.0378,-0.0164,0
3130,-0.437,-0.1648,9.765,-0.008,0.0191,0.0273,0
3150,-0.0885,0.0711,10.2576,0.0062,0.0518,-0.0315,0
3170,0.0477,0.1549,9.8416,0.0144,-0.0238,-0.018,0
3190,-0.0414,0.1119,9.5831,-0.0174,-0.0435,0.0102,0
3210,-0.3262,-0.4418,9.8185,-0.0299,-0.0073,0.0154,0
3230,0.1971,0.0263,9.484,0.0016,0.0509,0.0051,0
3250,0.0813,0.0051,9.9899,-0.0229,0.0062,-0.0087,0
3270,0.0097,-0.2781,10.0095,0.0561,0.0218,0.0076,0
3290,0.0648,0.0836,9.5801,-0.0262,0.0762,0.0394,0
3311,-0.1767,-0.1901,9.8412,-0.0016,-0.0469,0.0537,0
3331,0.2416,-0.3308,9.6661,-0.0164,0.0124,0.0116,0
3351,0.0886,-0.0498,9.4902,0.0603,0.0993,-0.0492,0
3371,-0.0072,0.0114,9.91,-0.0041,-0.0424,-0.0228,0
3391,0.239,-0.082,9.9951,-0.0469,-0.0401,0.0015,0
3411,0.0953,-0.1,9.4043,0.0457,-0.0024,0.0069,0
3431,-0.0666,0.0124,9.8635,0.0039,-0.0145,0.0039,0
3451,-0.3785,0.1477,9.9071,0.0251,0.0156,-0.0352,0
3471,-0.3117,0.3622,9.9165,0.0413,-0.0309,-0.0422,0
3491,0.12,0.0059,9.6703,-0.016,0.0828,-0.0024,0
3511,-0.1645,-0.062,34.7974,0.0193,3.2053,0.0738,1
3531,-8.5565,-10.2914,30.6525,0.6694,2.7089,0.9066,1
3551,-13.1447,-17.8095,23.5573,1.1908,2.1639,1.3944,1
3571,-13.0932,-22.7297,15.9827,1.4781,1.5434,1.3869,1
3591,-9.486,-24.7303,8.4401,1.6597,0.9265,0.9728,1
3612,-3.9609,-24.6481,2.508,1.663,0.3978,0.3971,1
3632,1.52,-22.6711,-0.5565,1.4801,-0.1908,-0.2119,1
3652,5.913,-18.8952,-1.9811,1.2653,-0.5166,-0.5895,1
3672,7.5557,-14.7702,-0.9922,0.9844,-0.8555,-0.8327,1
3692,6.7551,-9.9048,1.8601,0.67,-1.0506,-0.7151,1
3712,4.5511,-5.3093,5.0134,0.3295,-1.1234,-0.4746,1
3732,1.1779,-0.8964,8.676,0.0695,-1.0379,-0.0885,1
3752,-1.9078,2.4411,11.9569,-0.1307,-0.8893,0.2175,1
3772,-3.7009,4.875,14.0942,-0.3524,-0.7535,0.4331,1
3792,-4.1756,6.8608,15.45,-0.4392,-0.5763,0.4382,1
3812,-3.349,7.6944,15.2108,-0.5246,-0.3919,0.4243,1
3832,-2.1166,7.6759,14.5392,-0.5124,-0.1645,0.161,1
3852,0.2134,7.2515,13.145,-0.4695,-0.0215,-0.0023,1
3872,1.3974,6.3812,11.2003,-0.4333,0.1596,-0.1637,1
3892,2.1138,4.9992,9.3003,-0.3374,0.2181,-0.2126,1
3913,2.4613,3.3626,8.2364,-0.233,0.3329,-0.2335,1
3933,1.5214,2.0661,7.3637,-0.1324,0.333,-0.156,1
3953,0.5661,0.9203,7.5043,-0.0276,0.3566,-0.0542,1
3973,-0.3163,-0.2746,7.7106,0.0056,0.2578,-0.0138,1
3993,-1.1317,-1.4904,8.2453,0.0735,0.2781,0.1388,1
4013,-1.2152,-1.8782,8.9276,0.1221,0.2003,0.1322,1
4033,-1.2377,-2.1702,9.6968,0.1662,0.1947,0.1802,1
4053,-0.7675,-2.4231,10.0308,0.1344,0.0863,0.072,1
4073,-0.276,-2.1134,10.4355,0.1461,0.0124,0.0311,1
4093,0.2891,-2.2234,10.7504,0.1641,0.0009,-0.0277,1
4113,0.5373,-1.747,11.1048,0.1015,-0.1124,-0.0884,1
4133,0.7434,-1.4519,10.5753,0.09,-0.08,-0.0713,1
4153,0.3692,-0.9666,10.5487,0.0441,-0.078,-0.0734,1
4173,0.1121,-0.4024,10.4135,0.0083,-0.0943,0.0125,1
4193,-0.0644,0.094,10.1282,-0.013,-0.0826,0.023,1
4214,-0.0444,0.1952,9.9275,-0.0314,0.0463,0.0017,1
4234,-0.0498,0.1313,9.9539,-0.0647,0.0321,0.0387,1
4254,0.1004,0.2387,9.9354,0.0338,-0.0029,0.0243,1
4274,0.2538,-0.0846,9.489,-0.0502,0.0245,-0.0476,1
4294,0.1773,0.143,9.8837,0.0078,-0.0185,0.027,1
4314,-0.0689,-0.0014,10.0571,0.0051,0.0155,-0.0129,1
4334,-0.0188,0.1226,9.7352,0.0591,0.0167,0.0129,1
4354,-0.0467,0.1368,9.9375,-0.0158,-0.0232,0.0323,1
4374,0.1748,0.0583,9.3775,-0.0157,0.0101,0.0235,1
4394,0.0622,-0.0585,9.7374,-0.0178,-0.0204,-0.0341,1
4414,0.0444,-0.1283,9.8781,-0.0168,-0.0154,-0.0162,1
4434,0.0382,-0.352,9.7639,-0.0266,-0.0657,0.0303,1
4454,-0.0757,0.0454,9.9244,-0.0311,0.0306,0.002,1
4474,0.0893,0.0265,9.8066,-0.0128,0.0489,0.0299,1
4494,0.4315,-0.0488,10.0063,-0.0171,0.0313,-0.0428,1
4515,-0.0802,-0.0928,10.0706,0.0539,0.0084,-0.0012,1
4535,-0.0053,-0.0066,9.7163,0.0476,0.0091,0.0507,1
4555,0.1239,-0.1913,10.1977,0.0302,-0.0137,-0.0229,1
4575,-0.1541,0.0911,9.6551,-0.0148,-0.019,0.0013,1
4595,-0.0267,0.1227,9.7891,-0.0352,-0.0343,0.0655,1
4615,-0.0427,0.0693,10.0719,0.0284,0.0586,-0.0018,1
4635,-0.1191,0.2347,9.877,-0.0315,-0.0398,0.0497,1
4655,-0.0973,-0.076,9.5648,0.0115,0.0235,-0.0143,1
4675,-0.053,0.1494,9.7973,-0.0454,-0.0206,-0.0591,1
4695,-0.0661,-0.0682,9.4356,0.0129,0.0136,0.0112,1
4715,0.1595,0.162,9.8896,0.0476,0.0518,-0.0417,1
4735,0.0886,-0.0907,9.6524,0.0065,0.0173,0.0157,1
4755,-0.2038,-0.0803,9.6903,0.0252,-0.0163,0.0015,1
4775,-0.0679,0.0663,10.1253,-0.0193,-0.0094,-0.0323,1
4795,-0.0951,0.0389,10.2118,0.0086,0.0113,-0.0728,1
4816,0.1964,0.1234,9.7974,0.0424,0.0461,0.0036,0
4836,0.3194,-0.1599,9.5376,0.0191,-0.0096,0.0489,0
4856,0.0011,-0.2012,9.8311,0.0344,0.0058,-0.0796,0
4876,-0.174,-0.3281,9.6608,-0.0414,0.0172,0.0253,0
4896,-0.0397,-0.1751,9.6368,-0.0196,0.0024,0.0091,0
4916,0.1175,0.1153,9.5547,-0.0155,0.0184,0.0103,0
4936,-0.1486,0.0825,9.6335,0.0133,-0.0519,-0.0368,0
4956,-0.1558,-0.0772,9.7012,0.0064,-0.0141,-0.0498,0
4976,0.2165,-0.2273,9.8451,-0.0377,-0.0189,0.0097,0
4996,-0.0919,0.0933,9.7005,-0.0125,0.0154,0.008,0
5016,-0.1017,-0.1607,9.7554,0.0116,0.036,-0.017,0
5036,-0.0127,0.0893,10.1659,-0.023,0.0133,-0.0576,0
5056,-0.1983,0.2265,9.9962,0.0533,0.0249,-0.0755,0
5076,-0.0305,-0.0804,9.731,-0.0185,-0.0092,0.0163,0
5096,0.0653,-0.0922,9.8523,0.0318,0.0101,-0.0168,0
5117,0.0987,-0.015,9.8475,0.0254,-0.0167,0.0065,0
5137,0.1461,0.1453,10.2105,-0.0068,0.0007,-0.0029,0
5157,-0.0713,-0.047,9.8678,0.0102,-0.0158,-0.012,0
5177,0.0894,0.1442,9.3923,-0.0209,-0.023,0.0177,0
5197,0.1024,-0.071,9.6887,0.0042,-0.0355,0.0115,0
5217,-0.1696,-0.001,9.7443,-0.0033,0.0125,0.0069,0
5237,0.0756,-0.0901,9.7982,-0.0491,0.0295,0.0203,0
5257,0.0146,-0.0125,9.5356,-0.0073,-0.0368,-0.0074,0
5277,0.0884,0.1773,10.0138,-0.0332,0.0101,0.0295,0
5297,0.0065,0.2608,10.0762,-0.0472,0.0293,-0.0345,0
5317,0.1288,0.2696,10.1633,-0.0036,-0.0352,0.0072,0
5337,0.0266,-0.0118,9.4674,0.0054,0.0203,-0.0636,0
5357,0.0185,-0.1334,9.9404,-0.0239,-0.0321,-0.0031,0
5377,0.0333,-0.0136,9.6833,-0.0028,0.0384,-0.029,0
5397,-0.0891,-0.0431,9.9129,-0.0223,-0.0392,0.0174,0
5418,-0.0964,0.0394,9.8289,-0.0047,0.0302,-0.0432,0
5438,0.0705,0.0682,10.172,0.0076,-0.0143,-0.0084,0
5458,0.1978,0.0143,9.7227,-0.006,0.0325,-0.0032,0
5478,-0.0922,-0.0923,9.7427,0.0714,-0.0531,0.0551,0
5498,0.1515,0.1535,9.913,0.0406,0.0727,0.0104,0
5518,0.0198,-0.2565,9.9599,-0.013,0.0068,0.0362,0
5538,0.1067,0.0342,9.968,-0.0347,-0.0067,0.0553,0
5558,-0.1747,-0.2963,10.1439,-0.0743,0.0192,-0.0272,0
5578,0.0301,-0.0747,10.0018,-0.0417,0.001,0.0151,0
5598,0.1715,0.0725,9.981,0.0188,0.0335,-0.0395,0
5618,0.0528,0.0464,10.1834,-0.0048,-0.0157,0.018,0
5638,-0.2268,-0.1198,9.4462,0.0106,-0.0053,-0.0346,0
5658,0.0759,-0.1165,9.9475,0.0009,0.0103,0.0001,0
5678,-0.1988,-0.1142,9.6405,-0.0144,0.0776,0.0232,0
5698,0.2455,0.3265,9.9213,-0.0025,0.011,0.0165,0
5719,-0.0718,0.0827,9.6967,0.0421,0.0198,-0.063,0
5739,0.1077,-0.1053,9.596,-0.0017,-0.0035,-0.0394,0
5759,-0.2721,-0.1751,9.9094,0.0827,-0.0257,0.0071,0
5779,-0.1354,0.1678,9.5274,0.0174,-0.0608,0.0046,0
5799,0.0061,0.1085,9.7512,0.0211,-0.0312,-0.0367,0
5819,-0.0952,0.0404,9.9064,0.0036,-0.0045,-0.026,0
5839,-0.0456,0.0351,9.7479,0.0063,0.0154,-0.0331,0
5859,-0.376,0.1223,9.7455,-0.004,0.0348,-0.0186,0
5879,-0.3165,-0.1519,9.5044,-0.0422,0.0323,-0.0035,0
5899,0.1913,-0.15,9.9345,-0.0022,-0.0013,-0.0137,0
5919,0.2564,-0.1636,10.2991,-0.0255,-0.0178,-0.0644,0
5939,0.0369,0.0104,9.8336,0.1044,-0.0416,-0.0108,0
5959,-0.0,0.1224,9.969,0.0086,0.0739,-0.0146,0
5979,0.1732,0.0791,9.8308,-0.0096,-0.0162,0.0066,0
6000,-0.2133,-0.0673,10.0066,0.0186,-0.0192,0.0128,0
