timestamp_ms,ax,ay,az,gx,gy,gz,label
0,-0.1615,-0.0046,9.9842,0.0126,-0.0344,0.0173,0
20,-0.1497,-0.0825,10.1113,0.0149,0.0117,0.0059,0
40,-0.2189,0.0896,9.3822,0.0043,0.0079,-0.0083,0
60,0.1044,-0.1034,9.8603,0.0177,-0.0093,0.0109,0
80,-0.1084,0.2624,9.8036,0.049,-0.0395,0.0346,0
100,0.2473,-0.0232,9.9859,0.0291,0.0237,0.0385,0
120,0.0096,0.0863,9.7734,-0.003,0.0287,0.0184,0
140,-0.0802,-0.1026,9.8959,-0.0052,-0.0058,-0.0497,0
160,-0.0008,0.0308,9.6239,-0.0352,0.0022,0.0027,0
180,-0.217,0.1493,10.1176,0.0317,-0.031,-0.0233,0
200,0.0438,0.0613,9.9499,-0.0296,0.0023,-0.0242,0
220,-0.0499,0.0948,9.9683,0.0486,-0.0324,-0.0375,0
240,-0.2559,-0.0046,9.9558,0.0069,0.0156,0.0336,0
260,0.0833,-0.1906,9.6534,-0.0096,0.0963,0.0293,0
280,-0.2529,-0.0728,10.1644,0.0216,0.024,-0.0113,0
301,0.0336,0.0813,9.7325,0.0025,-0.032,0.0026,0
321,0.1088,0.05,9.8449,-0.0645,0.008,-0.0327,0
341,0.149,-0.1938,9.9267,0.0242,0.0253,0.0123,0
361,0.0114,0.0842,10.0924,0.0072,0.0088,0.0282,0
381,-0.2966,-0.0536,9.7718,-0.0047,0.0026,-0.0487,0
401,0.0405,0.2591,10.0742,-0.0163,0.0515,-0.0449,0
421,0.0068,0.1622,9.6835,0.0491,0.0344,-0.0291,0
441,-0.1386,-0.0126,9.9343,0.0758,-0.0072,-0.0213,0
461,0.0914,0.1861,9.8402,-0.0058,0.0229,-0.0275,0
481,-0.1695,0.1295,10.0088,-0.0136,-0.0114,0.0317,0
501,-0.113,-0.2658,10.2137,-0.0524,0.0234,0.0211,0
521,0.024,0.3293,9.8403,0.0238,0.0055,-0.0572,0
541,0.0614,0.0147,9.9518,-0.0306,-0.0362,-0.0418,0
561,-0.0323,0.2243,9.4263,0.0267,-0.0526,0.0761,0
581,0.1835,-0.4419,9.8546,-0.0304,-0.0538,-0.0117,0
602,0.1404,-0.0875,10.0315,0.0252,0.0061,-0.0475,0
622,0.1101,-0.1663,9.6249,0.0048,0.0418,-0.0656,0
642,0.0825,-0.1724,10.1655,0.014,0.028,-0.0312,0
662,0.321,-0.086,9.5483,-0.0017,0.0091,-0.0341,0
682,0.1836,0.1212,9.4818,-0.0161,-0.0024,-0.0236,0
702,-0.1246,0.1162,10.0445,-0.0246,0.0081,-0.0593,0
722,-0.0015,0.0069,9.7589,-0.0122,-0.0108,-0.0484,0
742,-0.1879,0.0636,9.9068,-0.0641,0.0528,-0.0201,0
762,0.1644,-0.0804,9.6164,0.0457,-0.0136,-0.0126,0
782,-0.3358,-0.0778,10.2111,-0.0406,0.0031,0.0357,0
802,-0.0953,0.1546,9.8617,0.0065,0.0054,0.0138,0
822,0.0126,-0.0879,10.0808,-0.0333,-0.007,0.0437,0
842,0.16,0.1897,9.8072,0.0162,-0.0298,0.0088,0
862,0.0566,-0.0005,10.0646,-0.0402,-0.0221,0.0498,0
882,-0.0328,-0.0712,9.6961,-0.0315,-0.0185,-0.0575,0
903,0.015,0.1905,9.9781,0.0225,0.028,0.0086,0
923,-0.173,0.0588,9.7613,0.034,-0.0232,-0.0413,0
943,0.4051,-0.0079,9.5601,-0.014,0.0262,0.0205,0
963,-0.0013,0.0446,9.5855,0.015,-0.0286,-0.0183,0
983,-0.0224,0.1365,9.7504,0.0046,-0.0354,0.0373,0
1003,0.0974,0.2251,10.0729,0.0156,0.032,-0.0079,0
1023,0.0349,0.0831,9.7835,-0.0031,0.0397,0.0144,0
1043,-0.2976,0.0566,9.6425,0.043,-0.0156,0.0243,0
1063,0.0351,-0.1901,10.2588,0.0347,0.0108,-0.0068,0
1083,0.146,0.1499,10.1027,-0.0057,0.0232,0.0247,0
1103,-0.0726,-0.0289,9.6796,-0.0119,-0.0343,-0.0158,0
1123,0.1404,0.2101,9.9882,-0.0034,-0.0712,0.0254,0
1143,0.0029,0.0394,9.4997,-0.0385,0.0045,0.0234,0
1163,0.0823,-0.0703,10.0872,-0.0088,0.0151,0.0066,0
1183,0.3211,0.0342,9.8604,-0.0199,-0.0121,0.0776,0
1204,0.2572,-0.0455,9.9084,-0.0592,0.0736,0.0323,0
1224,0.0431,0.0762,9.4606,-0.0474,0.004,-0.0019,0
1244,-0.16,-0.0704,9.7763,-0.0074,-0.0072,0.0141,0
1264,-0.0684,0.1201,9.7827,-0.0416,0.0201,-0.0073,0
1284,0.0075,0.1149,9.8779,0.0213,-0.0134,0.0262,0
1304,0.0321,-0.0671,10.0072,-0.011,0.0477,0.0117,0
1324,0.2318,0.0201,9.5754,0.0149,0.0632,0.0072,0
1344,-0.0343,-0.0492,9.7821,-0.0188,0.0847,-0.0474,0
1364,0.1839,-0.0968,9.7643,-0.006,-0.0292,0.0472,0
1384,0.2359,0.0397,9.8912,-0.0333,0.0074,0.0109,0
1404,-0.0458,0.0178,10.1057,0.0041,-0.0005,-0.009,0
1424,-0.1896,0.037,9.5892,0.0558,0.0099,0.0406,0
1444,-0.0995,-0.0875,9.3135,0.049,0.006,0.0313,0
1464,-0.0912,0.1887,9.5764,-0.0231,0.0523,-0.022,0
1484,0.0842,0.0669,9.9199,0.0071,-0.0494,0.0082,0
1505,-0.026,0.1077,9.6266,0.0007,0.0005,-0.057,0
1525,0.1597,-0.2686,9.6152,-0.0237,-0.0313,0.0173,0
1545,0.1273,-0.0434,9.6923,-0.0255,0.0007,-0.0061,0
1565,-0.108,0.2961,10.1344,0.0165,0.0093,-0.0232,0
1585,-0.036,-0.2048,9.6116,0.0085,0.0762,-0.0094,0
1605,0.1078,-0.2496,9.8693,-0.011,0.0023,-0.0155,0
1625,-0.0067,-0.0816,9.9889,0.0447,0.0075,0.0218,0
1645,-0.0303,-0.097,10.2403,0.033,-0.0413,-0.0655,0
1665,0.0623,-0.0495,10.2478,-0.0085,-0.0116,-0.014,0
1685,-0.2401,0.1965,9.819,-0.0042,-0.0371,-0.0025,0
1705,-0.1101,-0.0501,9.8538,-0.011,0.0612,0.0123,0
1725,-0.0977,0.0604,9.4344,0.0056,-0.0333,0.0143,0
1745,0.1678,-0.1495,9.862,-0.029,-0.0039,0.0681,0
1765,0.1332,-0.0407,10.1813,-0.0327,0.0303,0.0002,0
1785,0.0522,0.1686,9.6066,-0.0022,-0.0349,0.0112,0
1806,0.0553,0.026,9.7606,0.0186,0.0464,0.0338,0
1826,0.0757,0.0803,9.9625,-0.0146,-0.0201,0.0001,0
1846,0.0557,-0.0513,9.8805,-0.019,0.0467,0.0396,0
1866,0.0305,-0.1573,9.7706,0.0087,-0.0441,0.0139,0
1886,-0.0368,-0.1688,9.644,-0.0025,0.0475,-0.0006,0
1906,0.0473,-0.1315,9.8776,0.0401,0.0051,0.0104,0
1926,-0.0144,0.0314,9.8888,-0.0147,-0.0233,0.005,0
1946,-0.0057,0.2722,9.6471,-0.0096,0.0177,0.0206,0
1966,-0.0595,0.1711,9.695,-0.0063,0.0064,-0.034,0
1986,0.3266,-0.2569,9.848,0.0196,-0.0082,0.0205,0
2006,0.1253,0.0161,10.0172,0.0612,-0.0004,-0.0074,0
2026,0.2571,0.0273,9.9095,0.0218,0.0464,0.0078,0
2046,0.1922,0.0767,10.0566,0.0106,0.015,-0.0041,0
2066,0.0005,-0.1032,9.7879,0.0078,-0.0045,0.0473,0
2086,0.0483,0.0754,9.6878,0.0121,0.0302,-0.0684,0
2107,0.1006,-0.2055,10.288,-0.0135,0.0267,0.0078,0
2127,0.1723,0.0901,9.3212,-0.0313,-0.0059,-0.0378,0
2147,-0.0064,-0.1779,10.1078,0.0143,-0.0407,-0.0406,0
2167,-0.0602,-0.0608,9.7057,-0.0086,0.0355,0.0043,0
2187,-0.4038,0.0802,9.8757,-0.0346,0.0566,-0.0004,0
2207,-0.1254,-0.0904,9.3285,-0.0769,0.0026,0.0424,0
2227,-0.0355,0.0013,9.8772,-0.0351,0.0079,-0.0365,0
2247,0.1133,0.1829,9.8625,-0.0517,0.0023,0.0462,0
2267,-0.06,-0.1229,9.6749,0.0005,0.0741,0.0064,0
2287,0.1999,0.1627,10.0468,-0.0492,-0.0124,0.0488,0
2307,0.0403,-0.3435,9.646,-0.0171,0.0176,0.0095,0
2327,0.0682,0.1199,9.6452,-0.0203,-0.0473,-0.0549,0
2347,-0.1503,0.0274,10.0397,0.0352,0.0138,0.0233,0
2367,0.1141,-0.0297,10.0935,-0.0357,0.0239,0.0007,0
2387,-0.2069,-0.2245,9.7967,-0.0228,-0.0203,0.0476,0
2408,-0.15,0.1032,9.6417,0.0176,-0.0783,-0.0376,0
2428,-0.0525,0.0672,9.8029,-0.0074,0.0542,0.0294,0
2448,-0.0492,-0.0624,10.1207,0.0157,0.0257,-0.0239,0
2468,0.0803,-0.1667,10.0679,-0.0237,0.0547,0.0339,0
2488,-0.2103,-0.0212,10.0418,-0.0125,-0.0088,-0.027,0
2508,0.0511,-0.0572,9.8203,-0.0365,0.0101,-0.0019,0
2528,-0.1631,-0.5973,10.4034,0.0626,0.0491,-0.0156,0
2548,0.1146,-0.5241,10.0602,-0.044,-0.0333,0.0201,0
2568,-0.0137,-0.714,10.02,-0.0414,0.014,-0.0368,0
2588,0.0577,-1.0363,9.9768,0.0445,0.0056,-0.0271,0
2608,-0.0091,-1.5131,9.9183,0.0027,0.0072,-0.006,0
2628,0.0453,-1.6949,10.4093,-0.0164,0.0444,-0.03,0
2648,0.1891,-1.8619,9.8022,0.0148,-0.0158,-0.0296,0
2668,0.2688,-1.7764,10.1371,-0.0109,0.0173,-0.013,0
2688,-0.1257,-2.0779,10.1013,0.0015,-0.0154,0.0158,0
2709,0.0376,-2.1684,10.5293,0.0286,0.0156,0.0369,0
2729,-0.2186,-2.6381,10.7974,-0.0556,-0.0109,0.0057,0
2749,-0.2785,-2.9456,10.6914,0.0121,0.034,-0.018,0
2769,-0.035,-3.0503,10.5256,0.0046,-0.0109,0.0032,0
2789,-0.0787,-3.1881,10.421,0.0027,-0.0362,-0.0076,0
2809,0.3099,-3.6677,10.5897,-0.0061,0.0035,-0.0218,0
2829,-0.0148,-3.7112,10.4095,0.0562,0.0255,-0.0465,0
2849,0.3137,-3.8273,11.1809,-0.0408,-0.0271,0.0444,0
2869,-0.3014,-4.0676,10.5563,-0.0379,0.0217,0.0027,0
2889,0.1099,-4.5443,10.7612,0.0732,0.044,0.0308,0
2909,-0.1934,-4.3684,10.6685,0.007,0.0373,0.0136,0
2929,0.0287,-4.588,10.8384,-0.0058,-0.0378,-0.0002,0
2949,0.2329,-4.435,11.3065,-0.0095,0.0572,-0.0269,0
2969,-0.008,-4.6901,10.8671,-0.0274,0.0296,-0.0261,0
2989,-0.2165,-4.8015,10.9528,-0.0307,-0.0008,-0.0058,0
3010,0.0369,-5.1124,10.9867,0.0188,0.0316,-0.0251,0
3030,0.1434,-5.143,10.9005,-0.0498,-0.0134,0.0323,0
3050,0.0756,-4.8691,10.7663,0.0315,-0.0105,0.0213,0
3070,0.1224,-4.9685,10.8323,-0.0633,0.063,0.0561,0
3090,0.3,-5.0826,11.0746,-0.0033,-0.0182,0.0542,0
3110,0.1062,-5.2012,11.2232,-0.0074,0.0361,0.0004,0
3130,0.1136,-5.3304,11.184,-0.0256,-0.0002,0.0031,0
3150,-0.0002,-5.3641,11.001,0.0122,0.0107,0.0611,0
3170,-0.0506,-5.2202,11.2256,0.0481,-0.0157,0.0052,0
3190,-0.0714,-4.8241,11.2664,-0.008,0.0118,-0.0296,0
3210,0.0901,-5.3172,11.163,-0.0225,-0.03,0.0084,0
3230,-0.0926,-5.0939,10.5538,-0.0137,0.0168,0.0582,0
3250,0.016,-5.0802,10.6411,-0.0149,0.012,0.0442,0
3270,-0.1315,-4.8402,10.9894,-0.0132,-0.0152,-0.0089,0
3290,-0.143,-4.6118,10.7823,-0.0012,-0.0258,0.0312,0
3311,-0.0829,-4.723,10.9833,0.0175,-0.0059,-0.001,0
3331,0.0423,-4.5279,10.8972,-0.0211,-0.035,-0.0026,0
3351,-0.1495,-4.594,10.8275,0.0089,-0.0019,-0.0029,0
3371,-0.1247,-4.7053,10.9423,0.0018,0.0004,-0.0265,0
3391,-0.1234,-4.1794,10.8539,0.0022,0.0561,-0.0279,0
3411,-0.0354,-4.1799,10.7597,0.0047,-0.0056,-0.0547,0
3431,0.1679,-3.8548,10.3067,-0.0006,0.049,-0.0172,0
3451,-0.2302,-3.9289,10.5518,0.0093,0.0283,0.0789,0
3471,0.0962,-3.807,10.9333,0.0437,-0.0109,0.0036,0
3491,0.0706,-3.0795,10.7587,-0.0108,-0.0332,-0.0235,0
3511,0.0644,-3.3236,10.5099,-0.0383,-0.0402,0.0553,0
3531,-0.1893,-3.0946,10.2855,0.0282,0.0047,0.0237,0
3551,-0.0882,-3.1565,10.8054,-0.0388,-0.0015,-0.0147,0
3571,0.1513,-2.6893,10.0266,0.0504,0.0444,0.0,0
3591,-0.2301,-2.3588,10.5553,-0.0283,0.022,-0.0223,0
3612,0.213,-2.2143,10.4508,-0.0253,-0.0087,0.0323,0
3632,0.149,-2.0472,10.6285,0.0288,0.0015,-0.0061,0
3652,0.2307,-1.9524,10.2439,0.0091,-0.0323,0.0242,0
3672,0.1714,-1.8065,10.0385,-0.0346,-0.0096,0.0101,0
3692,0.3163,-1.2172,10.3264,0.0498,0.0355,0.0286,0
3712,0.0445,-1.0392,10.2594,-0.0612,-0.0088,0.0138,0
3732,-0.1665,-0.9682,10.0845,0.0165,-0.0072,0.0485,0
3752,0.1616,-0.7723,9.8815,0.0257,0.0032,0.0367,0
3772,0.1889,-0.2875,9.6302,0.042,-0.0491,-0.0489,0
3792,0.116,0.093,9.7594,-0.0146,0.0001,0.0118,0
3812,-0.0312,-0.0262,9.9218,-0.0234,0.0484,-0.0107,0
3832,0.0164,-0.106,9.9552,0.0319,-0.0192,0.0072,0
3852,0.1563,0.0453,9.7681,0.024,-0.0635,0.0283,0
3872,-0.0445,-0.222,9.9362,0.0007,-0.0185,0.0056,0
3892,-0.1092,0.0351,9.9207,-0.0389,-0.0077,-0.0002,0
3913,0.0944,-0.0971,9.676,0.0117,0.0803,0.0131,0
3933,-0.2109,0.1346,9.7982,0.0268,-0.0056,0.0324,0
3953,0.2098,0.158,10.1066,-0.003,0.016,0.009,0
3973,-0.1592,0.0849,9.7909,0.0645,-0.0249,-0.0081,0
3993,0.061,-0.1448,9.7587,-0.005,0.0106,-0.0025,0
4013,-0.0741,-0.1921,9.7358,0.0088,0.0243,-0.0316,0
4033,-0.0378,-0.283,9.8816,-0.0227,-0.0292,0.0134,0
4053,0.1677,0.0977,10.0763,0.0008,0.036,0.0228,0
4073,-0.0324,-0.167,10.0267,-0.0523,-0.0179,0.0395,0
4093,-0.1838,0.3217,9.5673,0.0052,0.0022,-0.0378,0
4113,-0.0262,0.0214,10.1865,0.0461,0.036,0.0103,0
4133,-0.1186,-0.1866,9.8237,0.0097,0.0011,-0.0159,0
4153,0.0798,-0.1374,9.9381,-0.0351,0.0385,-0.0042,0
4173,0.1011,0.2979,10.2004,0.0014,0.0071,-0.0289,0
4193,-0.0122,-0.0145,9.5732,-0.0026,0.0095,-0.0059,0
4214,0.3075,0.0747,9.7785,-0.0027,-0.0316,-0.0218,0
4234,0.0098,0.082,9.7565,-0.0202,0.0663,-0.0196,0
4254,0.1735,-0.1553,10.0469,0.0625,-0.0354,0.0059,0
4274,-0.1416,-0.2184,9.6489,-0.0091,-0.0405,-0.0163,0
4294,-0.0145,0.1097,10.1458,-0.036,0.0052,0.005,0
4314,-0.0139,-0.0825,9.8635,0.0209,0.0252,0.0135,0
4334,0.0029,-0.2423,9.7875,-0.0179,-0.0297,-0.0182,0
4354,0.034,-0.0183,9.9666,0.0668,0.0021,-0.0633,0
4374,-0.1673,0.1859,9.5302,0.0326,0.0367,-0.0222,0
4394,-0.3273,-0.0495,10.1065,0.032,0.0095,-0.0289,0
4414,0.0181,0.0755,9.8812,0.0332,0.0143,-0.005,0
4434,0.2579,0.112,9.6043,-0.004,-0.0193,-0.0328,0
4454,-0.1334,-0.0529,9.6585,-0.0056,0.0055,0.0305,0
4474,0.1404,-0.2451,9.7384,-0.0158,-0.0057,0.0177,0
4494,0.1998,0.1862,9.6599,0.0423,-0.0065,-0.0031,0
4515,-0.2127,-0.0305,9.8359,-0.0543,0.0201,0.0105,0
4535,-0.0009,-0.0562,9.6711,-0.039,-0.0073,-0.0005,0
4555,0.0316,-0.1726,9.7359,0.0223,-0.0529,0.0168,0
4575,-0.1662,-0.0564,9.6511,0.0089,-0.0054,-0.0307,0
4595,0.0199,-0.0386,9.6923,0.0194,-0.0021,-0.0176,0
4615,-0.2747,0.3193,9.814,-0.025,0.0195,0.0266,0
4635,0.0794,0.0269,9.8446,0.0223,0.0138,0.0069,0
4655,0.1577,0.1115,9.5568,0.0134,0.0374,-0.0221,0
4675,0.1277,0.2151,9.9246,0.0009,0.0035,-0.0208,0
4695,0.0234,0.2086,9.6227,-0.0201,-0.0243,-0.0508,0
4715,0.0713,-0.1463,10.1301,0.0094,-0.0559,0.0078,0
4735,0.0126,-0.2246,9.7198,0.0348,-0.0177,-0.0436,0
4755,-0.0306,-0.0624,9.343,-0.0209,0.0268,0.0312,0
4775,0.1088,0.1471,9.645,-0.0003,0.0209,0.0087,0
4795,-0.0469,-0.0468,9.5451,-0.0341,-0.0093,-0.0188,0
4816,0.1757,0.0253,10.0832,-0.0105,-0.0107,-0.0129,0
4836,-0.0117,0.0208,9.9961,0.0032,-0.0482,0.0258,0
4856,-0.1088,-0.2294,9.8983,0.035,0.0075,0.0343,0
4876,-0.1358,-0.2248,9.9063,0.0219,-0.0333,0.0185,0
4896,0.0132,0.0355,9.7114,0.0196,-0.0079,-0.0032,0
4916,-0.0114,-0.0942,9.7868,0.0206,-0.0263,-0.0377,0
4936,0.1443,-0.2379,9.73,-0.0321,0.0188,0.0084,0
4956,-0.1292,-0.042,9.7403,0.003,0.0288,-0.0195,0
4976,0.1011,0.0117,9.9738,-0.014,0.0199,0.0149,0
4996,0.0539,0.2138,9.6194,-0.0309,-0.0026,-0.024,0
5016,0.1133,-0.3279,10.1932,0.0035,-0.0062,0.0328,0
5036,-0.1048,0.126,9.9321,-0.0556,0.0024,0.0184,0
5056,0.0564,-0.0472,9.8011,-0.0041,0.0502,0.0183,0
5076,0.0241,-0.2081,9.4223,0.0315,-0.0339,0.0278,0
5096,0.0325,0.0835,9.5142,0.0066,-0.0046,0.0316,0
5117,0.0463,-0.3463,9.89,0.0068,-0.0323,0.0358,0
5137,0.1654,0.0571,9.6778,-0.0145,-0.0186,0.0323,0
5157,-0.0381,0.1485,9.6713,0.0141,-0.0026,-0.0183,0
5177,0.0774,0.1207,10.0769,-0.0456,0.04,-0.0553,0
5197,0.3761,0.079,9.7891,0.0065,0.064,-0.0091,0
5217,-0.1098,-0.0836,9.8736,0.0355,0.0218,0.0379,0
5237,-0.1113,-0.0142,9.5941,0.0291,-0.0007,-0.0176,0
5257,-0.0599,-0.1045,10.1307,0.0312,0.068,0.0305,0
5277,-0.0658,-0.0974,10.1873,-0.0187,0.0139,-0.046,0
5297,-0.0599,-0.3778,9.9493,0.0144,-0.0357,-0.0061,0
5317,0.1188,0.0362,9.9627,0.0198,0.0075,-0.0627,0
5337,0.0178,0.1268,10.1955,0.0288,0.0018,0.0167,0
5357,-0.0495,-0.2591,9.649,-0.0023,-0.0054,-0.0017,0
5377,-0.0425,0.0297,10.0423,0.0032,0.0158,0.0054,0
5397,-0.0152,0.0964,9.5188,-0.0211,0.0477,-0.0153,0
5418,-0.1985,0.063,9.6541,-0.0109,-0.0064,-0.0092,0
5438,-0.0024,-0.1479,9.7594,0.0141,-0.0027,0.0173,0
5458,0.0123,0.1042,9.8497,-0.0242,0.0016,0.0094,0
5478,0.0109,-0.1965,10.0741,0.019,0.0325,-0.0351,0
5498,0.0356,-0.0307,9.8204,0.0122,-0.0057,-0.0456,0
5518,0.0094,0.0545,9.6957,-0.0323,0.0333,-0.005,0
5538,-0.0076,0.0732,9.9099,-0.0327,0.0169,0.0116,0
5558,-0.1839,0.0142,10.0468,-0.035,0.0545,-0.0568,0
5578,-0.1255,-0.1201,9.4782,-0.0253,0.051,0.0465,0
5598,-0.2139,0.1083,9.8657,-0.0168,0.0015,0.0133,0
5618,0.0217,0.0163,9.8005,0.0269,-0.0198,0.0585,0
5638,-0.0168,0.0961,10.0955,0.0337,0.0255,-0.0137,0
5658,0.0636,-0.0648,9.5265,0.0175,0.0129,-0.0219,0
5678,0.058,0.1278,9.4944,-0.0343,-0.0152,0.0042,0
5698,0.0994,0.1125,9.758,0.0031,-0.0584,-0.0101,0
5719,0.1553,-0.3104,9.6456,-0.0089,0.0272,-0.0263,0
5739,0.2725,0.1635,10.082,-0.0538,0.0062,-0.0429,0
5759,0.0966,0.1295,9.8897,0.001,-0.0127,-0.0176,0
5779,0.1563,0.0623,9.6309,-0.0026,-0.049,0.0298,0
5799,-0.2895,0.0085,9.809,-0.0486,-0.0415,-0.0244,0
5819,-0.0025,-0.1364,9.5344,0.006,-0.0337,0.0255,0
5839,0.1141,0.112,9.5073,-0.0073,0.0334,-0.0376,0
5859,0.1496,-0.212,9.7183,-0.0269,-0.0079,0.0061,0
5879,-0.0467,0.1696,9.6848,-0.0124,0.0085,0.0216,0
5899,0.0512,0.0606,10.2214,0.0232,0.0521,0.0046,0
5919,-0.0646,-0.0298,10.15,0.0029,0.0087,-0.0489,0
5939,0.1025,0.0415,9.8733,-0.0437,0.0046,0.0033,0
5959,0.3017,-0.0597,10.0719,0.0019,0.0211,0.0079,0
5979,0.1822,-0.007,9.6801,-0.0231,0.0013,-0.0636,0
6000,-0.1511,0.0663,9.6454,0.0238,-0.0431,0.0343,0
