timestamp_ms,ax,ay,az,gx,gy,gz,label
0,-0.0582,-0.1493,9.9343,-0.0321,-0.0375,0.0082,0
20,-0.2482,0.2185,9.9077,0.0167,-0.0532,-0.0208,0
40,-0.1577,0.0859,9.7843,-0.0767,0.0041,-0.064,0
60,0.1042,-0.0498,9.9504,0.0319,-0.0379,-0.0009,0
80,0.0132,0.013,9.2658,0.0272,-0.0061,-0.0445,0
100,-0.0619,-0.0287,9.712,-0.0823,-0.0561,0.0378,0
120,0.0212,0.1221,9.7759,0.0216,0.0301,0.0611,0
140,0.0699,0.2958,10.111,-0.0539,-0.0563,0.0382,0
160,0.1479,-0.003,10.0034,0.0251,-0.0252,-0.018,0
180,-0.0203,0.04,9.772,0.0067,0.0126,-0.0035,0
200,0.0285,0.2089,9.9248,0.0508,0.0091,-0.0152,0
220,0.1351,0.0352,9.8659,0.0339,-0.0129,-0.0496,0
240,-0.1062,0.079,9.5296,-0.015,0.0289,-0.0305,0
260,0.0787,0.1122,9.9233,-0.0358,-0.0068,0.011,0
280,0.0769,0.0234,9.9185,-0.0037,0.0079,-0.0092,0
301,-0.1625,0.0572,9.7705,0.0267,0.0123,0.0278,0
321,0.1907,0.0107,9.761,0.0197,-0.0025,-0.0361,0
341,-0.0205,0.1575,9.8888,0.0111,-0.003,0.0436,0
361,0.1012,0.0417,10.1259,-0.0384,0.0459,-0.0509,0
381,-0.3182,0.0027,9.7638,0.0756,-0.0029,-0.0447,0
401,0.2805,0.1534,9.6556,-0.0112,-0.0067,0.0633,0
421,0.0894,0.0907,9.5444,-0.0354,0.0169,-0.0197,0
441,0.0224,0.3417,9.7374,-0.0244,0.0467,-0.0335,0
461,-0.1539,-0.1052,10.0254,0.0523,-0.0565,-0.0034,0
481,-0.0268,0.1724,10.3555,-0.019,-0.0373,-0.0234,0
501,0.2461,-0.1125,9.8254,0.0431,-0.0103,0.0035,0
521,0.1782,-0.2135,9.803,-0.0339,0.0661,0.0055,0
541,-0.198,0.1576,10.1625,0.0156,-0.0531,0.0292,0
561,0.0861,0.1174,9.4473,-0.0203,-0.017,0.0117,0
581,-0.0249,-0.0627,9.6515,-0.0261,0.0049,0.0113,0
602,-0.0213,0.0178,9.8475,0.007,0.0412,0.0052,0
622,0.0049,0.0185,10.0654,-0.0436,-0.0269,0.0395,0
642,0.2402,0.0305,9.5757,0.0441,-0.0228,0.0013,0
662,-0.1352,0.0146,9.7164,-0.0553,-0.042,-0.059,0
682,0.0356,-0.052,9.6865,0.0129,0.0365,0.0031,0
702,-0.0319,0.2244,9.737,0.0251,-0.0699,-0.0206,0
722,-0.2114,-0.3917,9.7824,0.0389,-0.0174,-0.0185,0
742,0.0507,-0.1171,10.0244,0.0273,-0.0095,-0.0245,0
762,-0.008,0.0922,9.8368,-0.0055,-0.0475,-0.0577,0
782,-0.0885,0.1398,9.7358,0.0266,-0.0008,-0.014,0
802,0.2747,0.221,9.9946,-0.0234,-0.0091,0.0523,0
822,0.2861,-0.0416,9.7284,0.0515,-0.0173,0.0145,0
842,-0.0829,0.2112,9.4524,-0.0109,0.0006,-0.026,0
862,-0.1411,-0.067,9.6782,0.0451,-0.0014,0.0518,0
882,0.0408,0.2665,9.7175,-0.0026,0.0136,-0.0238,0
903,0.2061,0.0515,10.2362,-0.0126,-0.0227,0.013,0
923,-0.1962,-0.0383,9.5839,0.0081,-0.011,0.0333,0
943,0.2152,0.1781,10.1293,-0.0085,-0.0252,0.0168,0
963,0.0139,0.4974,9.6165,-0.0057,0.0292,0.0665,0
983,-0.1831,0.074,9.719,-0.0051,-0.0034,0.0291,0
1003,-0.0212,0.2098,9.8079,-0.0019,-0.0099,0.0197,0
1023,-0.0343,0.0127,10.1819,-0.0051,-0.0347,0.0663,0
1043,-0.1057,0.1206,9.7702,-0.0318,-0.0317,0.0104,0
1063,-0.1233,0.1587,9.8219,-0.0268,0.0126,0.0248,0
1083,-0.0398,-0.2059,9.896,-0.0214,-0.0067,0.0086,0
1103,0.0433,0.4861,9.972,0.0302,-0.0121,0.0043,0
1123,0.1649,0.241,9.5776,-0.0103,-0.0108,-0.005,0
1143,0.0509,0.1162,9.769,-0.0023,0.0179,0.0443,0
1163,0.2194,0.0317,9.647,-0.0132,-0.0289,0.011,0
1183,0.1282,0.3236,10.0889,0.049,-0.0311,-0.0089,0
1204,-0.1523,-0.0184,9.6018,-0.02,0.0096,-0.0713,0
1224,-0.1126,0.2418,9.9655,-0.0177,-0.0307,0.0087,0
1244,0.3939,0.2704,9.9004,0.0135,-0.0557,-0.0009,0
1264,0.1791,0.1036,10.0916,-0.017,0.0564,0.0351,0
1284,0.0389,0.1575,9.5767,-0.028,-0.0317,-0.0017,0
1304,0.0757,0.1709,9.6516,0.0592,0.0048,0.0101,0
1324,0.1814,0.0758,9.8421,-0.0282,0.0003,0.0217,0
1344,0.0679,-0.2472,9.8154,0.0068,-0.0423,0.0392,0
1364,-0.0871,0.1838,9.7667,0.0368,-0.0143,0.0086,0
1384,-0.0258,0.2872,10.1208,0.0524,-0.0074,-0.0505,0
1404,0.2454,0.3368,9.5183,0.0604,0.0282,0.0377,0
1424,-0.2216,-0.1318,9.4748,0.0006,0.0264,-0.0432,0
1444,-0.2576,0.2324,9.8461,-0.0526,0.0298,0.0088,0
1464,0.0478,0.0484,9.4743,0.0121,0.0063,0.034,0
1484,0.0745,-0.0356,9.718,-0.0116,0.0082,0.0673,0
1505,-0.1455,0.3454,10.0132,-0.0031,-0.0187,-0.047,0
1525,-0.0458,0.3106,9.8704,-0.0048,-0.0222,-0.0378,0
1545,-0.1652,0.1544,9.5112,-0.0257,-0.0074,0.0232,0
1565,-0.0722,0.178,9.5469,-0.0121,-0.0244,-0.006,0
1585,-0.24,0.2389,10.3558,0.0693,0.0106,-0.0486,0
1605,-0.2221,0.1413,10.062,0.0048,0.0393,-0.0358,0
1625,0.0401,0.2,9.9855,0.0093,0.0068,-0.0079,0
1645,-0.0222,0.0259,9.7623,-0.026,0.0299,0.0284,0
1665,-0.229,0.3391,9.6687,0.0245,0.0085,0.0604,0
1685,0.085,0.2812,9.654,0.0576,0.0071,0.0351,0
1705,-0.1078,0.1042,9.8031,0.005,-0.0388,0.0624,0
1725,0.1551,0.0585,10.0622,-0.0255,-0.0282,0.0278,0
1745,-0.1324,0.3782,9.7427,-0.0039,0.0177,-0.0123,0
1765,0.0215,-0.1087,9.6535,0.023,0.0099,-0.0316,0
1785,-0.2546,0.1742,9.8426,0.0373,-0.04,-0.0322,0
1806,-0.0436,0.2936,9.569,0.0084,0.0059,0.0081,0
1826,-0.2954,0.0974,9.7348,-0.0143,0.0511,0.0142,0
1846,0.2859,0.2708,9.8825,-0.0332,0.0065,-0.0092,0
1866,-0.2255,0.0031,9.5753,0.0164,-0.0133,-0.0006,0
1886,0.1245,0.2729,9.7827,0.0221,-0.0253,0.01,0
1906,-0.0484,-0.1328,10.065,-0.0207,0.0774,0.0046,0
1926,-0.0495,0.0485,9.6177,-0.0023,0.0076,0.0053,0
1946,0.2373,0.1962,9.5458,0.0092,-0.0129,0.0105,0
1966,-0.0239,-0.0711,9.7508,0.0021,-0.0082,-0.0377,0
1986,0.013,0.3668,9.5913,0.0142,-0.0166,0.023,0
2006,-0.2725,0.3074,9.614,0.0568,-0.014,0.0479,0
2026,0.1151,0.0415,10.2549,0.0103,0.0186,-0.0343,0
2046,-0.1815,0.2098,10.0724,0.0387,0.0419,0.0015,0
2066,-0.0723,0.5495,9.356,0.0273,-0.0149,-0.0103,0
2086,-0.0121,0.3232,9.8944,-0.0221,0.0085,-0.0092,0
2107,0.095,0.2845,9.7802,0.0175,0.0163,-0.0452,0
2127,0.1377,0.0946,9.6009,0.0555,-0.0528,-0.0156,0
2147,-0.1007,0.2306,9.9446,0.0311,0.0314,-0.0159,0
2167,-0.1587,0.1497,9.7029,0.0023,-0.0045,0.027,0
2187,0.0774,0.4757,9.7625,-0.0392,0.0179,-0.0051,0
2207,0.1182,0.3567,10.176,-0.0326,-0.0397,-0.0395,0
2227,-0.1043,0.1181,9.4794,0.0334,-0.0231,-0.0238,0
2247,-0.1139,0.1958,9.9796,-0.016,0.0251,-0.0235,0
2267,-0.0981,0.076,9.8322,0.0161,-0.0057,0.0009,0
2287,-0.2598,0.4497,9.858,0.0197,0.0313,0.0007,0
2307,-0.1044,0.1931,9.6848,0.0165,-0.0217,-0.0142,0
2327,0.2751,0.1544,10.2413,0.0186,-0.0463,-0.0073,0
2347,-0.0459,0.2781,10.0526,0.0039,-0.0567,0.0206,0
2367,-0.0674,0.0454,9.5237,0.0096,0.0038,0.0061,0
2387,-0.1194,-0.0099,9.5332,0.0492,-0.0142,-0.0159,0
2408,0.1103,-0.1972,9.8368,0.0126,-0.0464,-0.0662,0
2428,-0.1309,0.3438,9.875,-0.0095,0.0132,-0.0182,0
2448,0.0606,0.4238,10.008,0.0032,0.0129,-0.0147,0
2468,0.0273,0.0985,9.4632,0.0228,0.0062,0.04,0
2488,0.0906,0.3265,10.0667,-0.0534,0.0086,0.0227,0
2508,-0.0001,0.3004,9.7872,0.0034,-0.0203,-0.0073,0
2528,0.0306,0.5514,10.0584,-0.0402,-0.003,0.0035,0
2548,0.0428,0.2387,10.0246,-0.0187,-0.0194,0.0195,0
2568,0.3557,0.1967,9.7116,-0.0295,0.0308,-0.008,0
2588,0.2832,0.4377,9.5461,0.0153,0.001,0.0167,0
2608,0.0161,0.3647,9.6548,0.0264,-0.0268,0.0547,0
2628,0.2378,0.1546,10.0564,-0.0237,-0.0235,-0.045,0
2648,-0.0892,0.2007,9.5736,-0.0083,0.0002,0.0174,0
2668,-0.0178,0.5461,9.9015,-0.0118,0.0101,0.0226,0
2688,0.0756,0.0169,9.8913,0.0022,-0.0153,-0.0031,0
2709,0.2858,0.3412,10.0845,-0.0251,-0.0176,-0.0361,0
2729,0.3242,0.1553,9.6902,-0.0397,-0.025,-0.0134,0
2749,-0.2383,-0.1027,9.9988,0.0382,-0.0566,0.0156,0
2769,0.1392,0.1572,9.4694,0.001,0.0054,0.0155,0
2789,0.0459,0.3066,10.1976,0.0156,-0.0481,-0.0328,0
2809,0.3234,0.2015,9.7058,0.017,-0.0118,0.035,0
2829,-0.1471,0.325,10.1418,0.0035,0.0286,-0.0006,0
2849,-0.159,0.5204,9.8966,-0.0191,0.0014,-0.0642,0
2869,0.1947,0.4123,9.4746,0.0001,-0.0114,-0.0691,0
2889,-0.0809,0.4477,9.6047,0.0126,0.0439,0.0316,0
2909,-0.1493,0.2082,9.711,0.0346,-0.0083,0.0079,0
2929,-0.0528,0.2143,9.6156,0.0216,-0.0042,-0.0028,0
2949,-0.0383,0.1444,9.686,-0.025,0.0224,-0.0872,0
2969,0.2538,0.0064,9.6544,0.0004,0.0048,-0.0004,0
2989,0.0128,0.5453,9.6148,-0.0001,0.0514,-0.0268,0
3010,-0.0608,0.2532,10.0511,-0.0247,-0.0477,0.0999,0
3030,0.0979,0.0763,9.8677,-0.0111,-0.0201,-0.0073,0
3050,0.0611,0.1227,9.5248,-0.0186,0.027,-0.0019,0
3070,-0.1506,0.4561,10.0956,-0.0042,-0.0371,0.0471,0
3090,0.0399,0.314,9.7985,-0.0117,-0.0171,0.0221,0
3110,-0.0927,0.3963,9.8822,0.0171,-0.0095,0.0324,0
3130,0.3137,0.0892,9.68,0.0154,-0.0057,-0.0434,0
3150,-0.1804,0.3834,9.9499,0.0079,0.0159,-0.0258,0
3170,0.0552,0.0685,9.6736,-0.0842,0.0354,0.007,0
3190,0.0438,-0.0554,9.7456,0.0603,-0.0053,-0.0114,0
3210,0.1061,0.1866,10.1937,0.0579,-0.0472,-0.022,0
3230,-0.5196,0.3022,9.3926,-0.0005,-0.0289,0.0333,0
3250,-0.175,0.2032,9.8275,0.0224,0.0424,-0.0116,0
3270,0.0244,0.1667,9.791,0.0394,0.0192,0.0115,0
3290,0.0271,0.5415,9.8214,0.0479,0.0245,0.036,0
3311,-0.0823,0.0031,9.9171,-0.0044,-0.0424,-0.0213,0
3331,0.002,0.1876,9.6852,0.0035,0.0206,0.034,0
3351,-0.0758,0.1305,9.9951,-0.0097,0.013,-0.0276,0
3371,0.006,0.018,9.7714,0.0287,-0.0413,0.0192,0
3391,0.0632,0.1792,10.0496,0.0176,-0.0072,0.0203,0
3411,-0.1429,0.0643,9.8353,0.0104,-0.0084,-0.0184,0
3431,0.042,0.1831,9.7194,0.0059,-0.0192,-0.0424,0
3451,-0.036,0.1875,9.5515,-0.0556,0.013,-0.0129,0
3471,-0.1576,0.2569,9.8145,0.0369,0.012,-0.0191,0
3491,0.0427,0.3429,9.3639,0.0188,-0.0007,-0.0335,0
3511,-0.1825,0.2539,9.8205,0.0332,0.0331,0.0064,0
3531,-0.0565,0.009,9.918,0.0256,-0.0205,0.0108,0
3551,0.1466,-0.0043,9.7799,-0.0031,-0.0296,-0.0059,0
3571,-0.009,0.0898,9.8261,0.0078,0.0376,-0.0057,0
3591,0.0082,0.3295,9.6663,-0.0295,0.0274,0.0193,0
3612,-0.2797,0.23,9.8609,-0.0117,-0.0185,0.1017,0
3632,-0.0204,-0.2731,9.4938,0.0495,0.0111,-0.0438,0
3652,0.107,0.1874,9.5133,-0.0694,-0.0311,-0.0182,0
3672,0.002,0.0001,9.8402,-0.0169,-0.0031,0.0193,0
3692,0.0194,0.2274,9.4986,-0.0498,0.0534,-0.0297,0
3712,-0.3142,0.0249,9.6387,0.0361,-0.0001,0.0025,0
3732,-0.0683,0.1033,9.7059,-0.0465,0.0175,-0.0012,0
3752,0.0817,0.1178,9.8676,-0.0032,-0.0261,-0.0507,0
3772,0.3067,0.12,9.8377,0.0203,0.0046,0.0224,0
3792,0.1876,0.3226,9.701,0.0103,-0.0059,-0.0014,0
3812,-0.0298,0.2292,9.9055,0.0156,0.0188,-0.0328,0
3832,0.0495,0.0729,9.8357,-0.0265,-0.0008,0.0237,0
3852,0.1569,0.3344,9.6634,0.0233,0.0036,-0.0168,0
3872,-0.0163,0.0455,9.6244,-0.0196,-0.0137,0.0138,0
3892,0.0278,0.0647,9.768,-0.061,-0.0525,-0.0576,0
3913,-0.2237,0.4215,9.489,-0.0096,-0.0062,0.0149,0
3933,0.0135,0.2056,9.6215,0.0234,0.0198,0.0208,0
3953,0.2303,0.3324,9.9126,-0.0155,-0.0543,-0.0111,0
3973,-0.1374,0.2574,9.7367,0.0528,-0.0062,0.0484,0
3993,0.1821,0.1646,9.5102,0.0422,-0.0042,0.0067,0
4013,-0.0568,0.0457,9.9437,0.0476,0.0223,0.0455,0
4033,0.2668,0.2199,9.7969,0.024,0.0197,0.0174,0
4053,-0.0542,0.0188,10.1328,0.0046,0.008,-0.0036,0
4073,-0.0938,0.1495,9.7846,-0.0296,-0.0308,0.0729,0
4093,-0.0816,0.0841,9.7974,0.0088,-0.01,-0.0208,0
4113,0.0486,-0.1259,10.1149,-0.0167,0.0515,0.0168,0
4133,-0.1183,0.1473,9.8504,-0.0149,0.0036,0.0433,0
4153,-0.0951,0.176,9.9717,0.0012,0.0106,0.0553,0
4173,-0.1079,0.1797,9.6319,-0.0286,0.0129,-0.0021,0
4193,0.0488,0.0895,9.9647,0.0127,0.0321,0.0129,0
4214,0.1179,0.46,9.9437,0.004,-0.0498,-0.0062,0
4234,-0.045,0.1212,9.6269,0.0092,-0.066,-0.0217,0
4254,0.1679,0.1253,9.7733,-0.0008,-0.0401,0.002,0
4274,-0.0474,0.1035,9.5512,0.0563,-0.0181,-0.0212,0
4294,0.3096,0.294,9.6134,-0.0108,-0.0003,0.0531,0
4314,-0.0311,0.1104,10.0466,-0.0292,0.0015,0.0333,0
4334,0.1092,0.3186,10.0947,0.0149,0.0034,0.0064,0
4354,0.0245,0.0584,9.6859,0.0134,0.0204,0.0276,0
4374,-0.1702,0.2749,9.9109,0.0185,0.0784,-0.0266,0
4394,-0.2554,0.0487,9.8712,0.025,-0.0245,-0.0516,0
4414,0.0784,-0.0013,10.1184,-0.0191,0.0177,-0.0002,0
4434,0.1127,0.166,10.1141,0.0305,0.0351,-0.0024,0
4454,-0.104,0.1692,9.7608,0.048,0.0097,-0.0156,0
4474,-0.0934,0.153,9.7807,0.0228,-0.0105,0.0028,0
4494,0.1641,0.0808,9.8325,0.0295,-0.0236,-0.0264,0
4515,0.0362,0.1631,9.9574,-0.0043,0.032,0.0335,0
4535,0.0118,0.246,9.9179,0.0551,-0.0132,0.0228,0
4555,0.0056,0.2053,9.8508,-0.0405,0.0307,0.0214,0
4575,-0.0829,0.0944,9.3702,0.0206,0.0481,-0.0135,0
4595,-0.087,0.0909,9.7259,0.0187,-0.0088,0.0088,0
4615,0.0489,-0.2137,9.7466,-0.0105,0.0038,0.0117,0
4635,0.0533,-0.0106,9.7825,0.0008,0.0243,-0.0223,0
4655,-0.2236,0.3324,9.7958,-0.023,0.0207,0.0258,0
4675,0.3365,0.1658,9.6414,-0.0353,0.0034,0.007,0
4695,-0.1176,-0.0048,9.9332,-0.0037,0.0057,-0.0533,0
4715,-0.1048,0.1465,10.0237,0.0211,0.0122,0.0363,0
4735,-0.0086,0.3103,10.0176,0.0688,0.0001,-0.0245,0
4755,-0.2381,0.2519,9.6122,0.0522,-0.0368,0.0153,0
4775,-0.1356,-0.0392,9.8731,0.0661,-0.0049,0.0128,0
4795,-0.0273,0.1599,9.6912,0.0107,0.0141,-0.0465,0
4816,-0.0873,-0.0113,9.632,0.0002,-0.0584,-0.0046,0
4836,0.1005,0.1424,9.9924,0.0313,0.0031,-0.0319,0
4856,-0.1135,0.0277,9.8213,0.0137,0.0398,-0.003,0
4876,0.0738,0.1312,9.9069,-0.0219,-0.0448,0.0636,0
4896,-0.1958,0.0563,9.8878,-0.0125,0.0184,0.0216,0
4916,-0.0145,0.1192,9.8066,-0.0307,-0.0429,-0.0263,0
4936,0.0228,0.0059,9.303,-0.0255,-0.0213,0.0342,0
4956,-0.0233,0.0832,10.2277,0.0317,-0.0558,-0.0446,0
4976,-0.1306,0.3951,9.7542,0.003,-0.0474,0.0141,0
4996,-0.15,0.1937,9.978,-0.0243,-0.0171,-0.0123,0
5016,0.0759,0.1327,9.8031,0.0433,0.0064,0.0475,0
5036,0.0232,0.1224,9.8127,-0.0001,-0.0296,0.0017,0
5056,-0.2527,0.2668,9.9003,0.0296,0.0294,0.0131,0
5076,-0.1711,0.2523,10.188,-0.016,-0.0181,-0.0484,0
5096,-0.1047,0.0358,9.8191,-0.0062,0.0446,0.0299,0
5117,-0.0562,0.0028,9.5267,-0.0125,0.0236,0.0296,0
5137,-0.1734,-0.0224,9.8354,0.0738,0.0175,-0.0004,0
5157,-0.0413,0.0024,9.9573,0.0049,-0.0164,-0.0269,0
5177,0.0158,0.0197,9.6883,-0.0174,-0.0383,-0.0125,0
5197,-0.012,0.1143,10.0495,0.0186,-0.0474,0.0199,0
5217,-0.1551,0.0474,9.3446,0.0325,0.0508,-0.0154,0
5237,0.2302,-0.0063,9.5116,-0.0611,-0.013,-0.0024,0
5257,0.0047,0.0258,10.0328,-0.0069,-0.0026,0.0661,0
5277,-0.0416,0.1909,9.5255,0.0255,-0.0513,-0.0249,0
5297,-0.1645,0.332,9.7828,-0.0318,-0.0404,-0.0045,0
5317,0.0416,0.085,9.8135,-0.0394,0.0122,-0.0325,0
5337,-0.069,0.1525,10.1517,-0.0137,-0.0426,0.0551,0
5357,0.1699,-0.0579,9.3099,-0.0247,-0.0176,0.0086,0
5377,0.0498,-0.2852,9.9186,0.0001,0.0123,0.047,0
5397,0.1906,-0.1963,9.8096,-0.0303,-0.0594,-0.0197,0
5418,0.1347,0.1493,9.9395,-0.0183,-0.0132,-0.0691,0
5438,-0.0894,-0.0707,9.5826,-0.0085,0.0343,0.0258,0
5458,-0.4238,0.0687,9.9607,-0.0297,0.037,0.0051,0
5478,0.1411,0.1031,10.1815,-0.0517,0.0155,0.0089,0
5498,0.3518,0.0611,9.9556,0.0308,-0.0181,0.0117,0
5518,0.0333,0.2772,9.4856,0.0232,-0.0237,0.052,0
5538,-0.0166,-0.2188,9.8961,-0.0241,0.0095,0.0135,0
5558,-0.1458,-0.0949,9.6,-0.006,-0.0242,0.0466,0
5578,-0.0359,0.1225,9.786,-0.0224,0.0263,-0.0158,0
5598,0.0602,0.1232,9.8736,-0.0307,0.0184,-0.0024,0
5618,-0.1077,-0.0295,9.6062,-0.0163,0.0232,0.0195,0
5638,0.1136,0.2585,9.9196,0.0183,-0.0167,-0.0199,0
5658,0.0618,-0.1209,10.0291,0.0096,0.0011,-0.019,0
5678,-0.1748,-0.0027,9.7479,0.0572,-0.0386,-0.0187,0
5698,0.0266,0.1169,9.9957,0.0353,0.0149,0.0239,0
5719,-0.0548,0.2771,9.5456,-0.009,0.0242,0.0273,0
5739,0.0523,-0.124,10.0017,-0.0089,0.0364,-0.069,0
5759,0.0314,-0.1475,9.6807,-0.0152,0.0084,0.0223,0
5779,0.0095,0.1026,9.8722,0.0406,0.025,-0.0129,0
5799,-0.0194,0.2796,9.6793,0.0043,-0.054,0.0144,0
5819,0.1109,0.07,9.8091,-0.0167,-0.0143,0.0448,0
5839,0.1268,-0.1538,9.9272,0.0116,0.0028,0.0251,0
5859,-0.1275,-0.2328,9.7992,0.0333,0.0315,-0.0135,0
5879,-0.028,0.04,9.8057,-0.0533,-0.0555,-0.0258,0
5899,0.2547,0.2205,9.6719,0.02,0.0068,0.0006,0
5919,0.0748,0.0731,9.3673,0.0581,0.0099,0.0287,0
5939,-0.1136,-0.1531,9.8845,-0.0214,-0.0264,0.0005,0
5959,0.0373,0.0051,9.6598,-0.0255,-0.0003,-0.0089,0
5979,-0.0122,-0.2118,9.8047,-0.0137,0.0005,0.0315,0
6000,-0.2201,0.2643,10.181,0.0408,-0.0032,-0.019,0
