timestamp_ms,ax,ay,az,gx,gy,gz,label
0,0.2527,-0.0442,9.6886,0.0603,0.0139,-0.0288,0
20,-0.1136,-0.2399,9.6957,-0.0304,0.0282,-0.0085,0
40,-0.0913,0.1425,9.6942,-0.0054,0.0127,-0.0082,0
60,0.0693,-0.187,9.8644,0.0147,-0.0066,0.0268,0
80,-0.0899,0.1933,9.9731,-0.0098,0.0041,-0.0489,0
100,-0.1129,0.0266,9.3879,0.0378,-0.0446,-0.0222,0
120,-0.1405,0.0743,9.7896,-0.0019,0.0015,-0.01,0
140,-0.048,-0.0038,9.785,-0.0392,0.0226,0.0286,0
160,0.1563,-0.0191,9.6013,-0.019,-0.0282,0.0,0
180,-0.0668,0.07,9.8587,-0.0415,0.0531,-0.0087,0
200,0.0966,0.1705,9.8671,-0.0224,-0.0236,0.0273,0
220,-0.0884,-0.0881,9.6564,0.0357,0.0184,0.0555,0
240,-0.0423,0.0511,9.6503,-0.017,0.009,-0.0456,0
260,0.0122,-0.0186,9.6871,-0.007,-0.0183,-0.012,0
280,0.1318,0.1948,9.8605,-0.0019,0.0513,0.0681,0
301,0.0819,-0.0952,9.8767,0.0259,-0.0067,0.0238,0
321,0.073,0.0971,10.0047,0.0143,0.008,-0.0235,0
341,-0.0487,0.191,9.8317,0.0258,-0.0212,0.0238,0
361,-0.0476,-0.0834,9.939,0.0301,-0.0385,0.0022,0
381,-0.417,-0.0852,9.9587,0.036,-0.0252,-0.0534,0
401,0.0799,0.2868,9.8265,-0.0403,0.036,0.033,0
421,-0.0679,0.0655,9.6968,0.033,-0.0054,0.0288,0
441,0.0853,0.0805,9.8875,-0.0494,-0.0078,0.0125,0
461,-0.0208,-0.0348,9.8042,0.0271,0.0149,-0.0418,0
481,-0.1621,-0.04,10.0539,-0.025,-0.0335,0.0103,0
501,-0.2685,0.2396,9.5308,0.0109,0.018,-0.0305,0
521,0.0179,0.0411,9.9608,-0.0392,-0.0297,0.0197,0
541,-0.0341,0.2718,9.7172,-0.0214,-0.0592,-0.031,0
561,0.0246,0.1022,9.7823,-0.0336,-0.0346,0.0304,0
581,0.0189,0.1684,9.7314,-0.0154,0.0245,0.0003,0
602,-0.3139,-0.0084,9.9427,0.0078,-0.0222,0.0328,0
622,-0.0311,0.2075,10.0658,0.0337,-0.0205,0.0207,0
642,0.0397,0.0699,9.584,0.011,-0.0384,-0.0445,0
662,0.0196,-0.3169,9.8788,0.0085,0.0247,-0.0012,0
682,-0.1586,0.0634,10.1827,-0.0447,-0.018,0.0125,0
702,0.159,-0.0714,9.6275,-0.008,0.0335,0.0107,0
722,0.082,0.2006,9.9429,-0.0332,0.004,-0.026,0
742,0.102,0.1352,9.6269,0.0225,-0.0044,-0.0043,0
762,0.136,0.0722,9.9026,0.008,-0.0662,0.0412,0
782,0.2812,-0.0488,9.582,-0.0067,0.0384,0.0924,0
802,-0.1332,0.1506,9.6175,0.0374,-0.0085,0.0394,0
822,0.1774,0.1053,10.2778,0.0102,0.0379,-0.0347,0
842,-0.0607,-0.0138,9.7596,-0.0307,0.0666,0.0193,0
862,-0.0728,0.1852,9.6722,0.0131,0.0173,0.0341,0
882,0.429,-0.15,10.196,0.0269,-0.0082,0.0314,0
903,0.0141,0.1327,9.9368,0.028,0.0229,0.0024,0
923,0.1671,-0.1128,9.753,0.0171,0.0291,-0.0434,0
943,0.0638,0.2267,9.9282,0.0249,-0.0168,0.0025,0
963,-0.1785,0.1496,9.8225,0.0125,-0.0114,-0.0159,0
983,-0.1234,0.3331,9.9929,-0.0023,0.0456,0.0391,0
1003,-0.0671,0.0836,10.1532,-0.0394,0.0266,-0.0784,0
1023,0.1924,-0.1396,9.5253,-0.0275,0.0178,-0.0042,0
1043,-0.0504,0.3493,9.8993,0.0125,-0.0304,-0.0069,0
1063,0.3586,0.2021,9.9305,-0.005,0.0385,-0.0114,0
1083,-0.0715,0.0986,9.7607,-0.0161,-0.0359,-0.0031,0
1103,-0.2244,0.147,10.2454,-0.0349,-0.0075,-0.0056,0
1123,-0.1047,0.065,9.891,0.0421,0.0313,-0.0376,0
1143,0.1304,0.1207,9.8926,-0.0088,-0.0116,-0.046,0
1163,-0.1406,0.3154,10.1345,0.0773,0.0389,-0.0485,0
1183,0.1347,-0.0491,9.9552,0.0057,-0.0122,-0.0012,0
1204,-0.2058,0.0855,9.5536,0.0237,0.0098,0.0522,0
1224,-0.053,0.1936,9.8671,0.0263,-0.0193,0.0171,0
1244,-0.1796,-0.0377,10.2882,0.0004,0.0084,0.0038,0
1264,0.0933,0.2244,9.8175,0.0477,0.0084,-0.0338,0
1284,0.0976,-0.0885,9.3459,0.0276,-0.0166,0.0469,0
1304,-0.0421,-0.0191,10.2246,0.0489,-0.0341,0.0288,0
1324,0.0395,0.1579,10.1023,0.0318,0.0373,-0.0193,0
1344,0.1403,0.0299,9.8732,0.0118,-0.0245,0.0127,0
1364,-0.3417,0.0311,9.9335,-0.0117,0.0191,0.0188,0
1384,0.0478,0.2701,9.702,0.0082,-0.0277,-0.0182,0
1404,0.0046,0.3227,9.8602,0.0332,-0.0282,-0.0695,0
1424,-0.0358,0.0917,9.5862,-0.0286,0.0038,-0.0151,0
1444,-0.2303,0.152,9.898,-0.0079,0.0293,0.0242,0
1464,0.176,0.0061,9.8264,0.0101,-0.0332,-0.0429,0
1484,0.0307,-0.0198,9.7772,0.0194,0.0451,0.0217,0
1505,0.0165,0.1792,9.8447,-0.0012,0.0076,-0.0014,0
1525,-0.1813,0.1286,10.1789,0.0035,0.0145,0.0259,0
1545,0.0793,0.0548,10.0466,-0.0488,0.0626,0.0152,0
1565,0.0166,0.107,9.7721,-0.045,-0.0037,0.0437,0
1585,0.213,0.292,9.7915,-0.0059,-0.0893,-0.0407,0
1605,0.0414,-0.0016,9.6122,0.0599,-0.0538,-0.0305,0
1625,-0.0131,0.0855,9.6595,-0.0109,-0.0629,-0.0152,0
1645,0.1696,0.1695,9.7231,0.0256,0.008,-0.0125,0
1665,0.009,0.1358,9.887,0.0114,0.0583,-0.007,0
1685,-0.0533,0.1992,9.8967,-0.0189,0.019,-0.0224,0
1705,0.173,0.0478,9.8654,-0.0234,-0.0223,0.0223,0
1725,-0.0171,0.1573,9.9614,-0.0175,-0.04,0.0155,0
1745,0.2694,0.0534,9.6706,0.0056,-0.0178,0.0035,0
1765,0.0334,0.203,9.9044,-0.0225,-0.0122,-0.0148,0
1785,-0.1572,0.0219,9.9674,0.0042,0.0126,-0.0001,0
1806,0.325,0.213,9.822,-0.0154,-0.0064,0.0412,0
1826,-0.2385,0.0337,9.9043,0.0393,-0.0146,-0.0003,0
1846,0.0232,0.1179,9.7925,0.0112,0.0049,0.0214,0
1866,-0.0346,0.1638,9.624,-0.0066,0.041,-0.0859,0
1886,-0.1249,0.3555,9.9221,-0.0134,-0.0009,-0.0003,0
1906,0.0441,0.1425,9.7009,-0.0479,0.0177,-0.011,0
1926,-0.0265,0.2691,10.0791,-0.0538,0.0676,-0.0328,0
1946,0.0558,-0.1529,9.4868,-0.0165,0.0329,-0.0409,0
1966,-0.0585,0.1942,9.5811,0.0104,0.0212,-0.021,0
1986,0.2828,0.2255,10.0641,-0.0494,-0.007,0.0917,0
2006,0.351,0.0127,9.636,-0.0069,0.0162,0.0212,0
2026,-0.013,0.3,9.9501,0.0126,0.0687,0.0069,0
2046,0.0707,0.0972,10.0127,-0.0208,-0.0266,-0.0011,0
2066,-0.0084,-0.1656,9.8344,0.0089,-0.0414,-0.0067,0
2086,0.0181,0.1938,9.9144,0.013,-0.0176,0.0134,0
2107,0.0425,0.1566,9.861,0.0006,0.0302,-0.0314,0
2127,-0.0598,-0.0109,9.979,-0.0433,-0.0099,-0.033,0
2147,0.226,0.3823,9.6874,-0.0132,-0.0312,-0.0051,0
2167,-0.1213,0.058,9.7407,0.0026,0.0243,-0.0236,0
2187,-0.028,0.0031,10.0253,0.008,-0.0002,0.0594,0
2207,0.0451,0.2608,9.742,0.0128,0.0427,0.0554,0
2227,-0.1696,0.2107,9.6285,-0.0089,0.0234,-0.0283,0
2247,0.0074,0.457,10.0456,0.065,0.0675,-0.0389,0
2267,-0.0441,-0.1038,9.8248,0.0082,-0.0184,-0.0019,0
2287,-0.2144,-0.1272,9.4623,0.016,0.0156,-0.0393,0
2307,-0.1189,0.1393,9.7519,0.0169,-0.0362,-0.0516,0
2327,0.0121,0.007,10.1093,-0.0013,0.0068,-0.0155,0
2347,0.1434,0.2203,9.9362,0.036,-0.0139,0.0245,0
2367,-0.2783,0.1082,9.8929,-0.044,0.0163,-0.0148,0
2387,0.0624,0.086,9.9415,-0.0315,-0.0576,0.0233,0
2408,0.0763,0.051,10.0947,-0.0284,0.0089,0.0735,0
2428,-0.0913,0.096,9.7389,0.0261,0.0125,0.0088,0
2448,0.3914,0.0415,9.6261,-0.0401,0.0364,0.0187,0
2468,0.099,0.0702,10.1629,-0.0425,-0.0039,-0.0417,0
2488,0.0145,0.1368,9.7012,0.0058,-0.0228,0.0181,0
2508,0.1632,0.1718,9.6133,-0.0212,0.0374,0.0335,0
2528,-0.0237,-0.0288,9.8149,0.0216,-0.0124,0.0191,0
2548,0.0383,0.2032,9.6759,-0.0134,0.0089,-0.0142,0
2568,-0.29,0.2073,9.6276,0.0198,0.0279,0.0192,0
2588,-0.1342,0.1876,9.9832,-0.023,-0.0311,0.008,0
2608,0.0614,0.3929,9.6909,-0.0293,0.0027,-0.0045,0
2628,0.232,-0.1193,9.8004,-0.0294,0.0237,-0.0073,0
2648,-0.2104,0.4246,10.1861,0.0289,-0.0052,-0.0126,0
2668,-0.1768,0.0138,9.8392,0.0069,0.0283,0.0082,0
2688,-0.1178,0.284,10.2254,0.061,-0.0114,0.0112,0
2709,0.2557,0.135,9.8458,0.0157,-0.0414,0.0232,0
2729,-0.0741,0.1419,10.002,0.0015,-0.0554,0.0057,0
2749,0.0757,-0.0163,10.1763,-0.0362,-0.0259,-0.0353,0
2769,0.1275,0.1945,10.158,-0.0189,-0.0458,0.0004,0
2789,-0.1785,0.3057,10.1992,0.051,-0.0061,0.0173,0
2809,-0.0705,0.1225,9.936,-0.0164,0.0129,0.0008,0
2829,0.0012,0.4729,9.4593,-0.0408,0.0023,0.0304,0
2849,-0.0531,0.1792,9.7868,0.0595,0.0648,0.0202,0
2869,0.0337,0.0085,9.8657,0.0021,-0.0114,0.023,0
2889,-0.3927,0.1324,9.7143,0.0136,0.0319,0.0104,0
2909,-0.056,0.2583,10.072,0.0363,0.0053,0.007,0
2929,0.053,-0.018,9.6433,-0.0327,-0.0405,0.0149,0
2949,-0.2462,0.0752,9.5724,0.0123,0.0347,0.0271,0
2969,-0.1147,0.2169,9.6466,0.0018,-0.0022,0.0041,0
2989,0.2636,0.3366,10.2607,0.0025,-0.0131,0.0072,0
3010,-0.0876,0.134,10.2256,0.0296,-0.0209,-0.0097,0
3030,-0.0415,0.3577,9.7796,0.0158,-0.0133,0.0176,0
3050,0.0078,0.2488,9.5158,0.0621,-0.0076,-0.0246,0
3070,-0.2969,0.1415,9.8562,0.0028,0.0312,-0.0647,0
3090,-0.0381,0.2103,9.5963,-0.0285,-0.002,-0.0001,0
3110,-0.0509,0.3372,9.694,0.008,0.0015,0.0054,0
3130,-0.1137,0.506,9.9446,-0.0107,-0.0062,0.0427,0
3150,-0.2143,0.2202,9.4249,-0.002,-0.0282,0.0445,0
3170,0.0867,0.2568,9.5124,-0.005,0.0155,-0.0372,0
3190,-0.2983,0.3923,9.5875,0.0234,-0.044,0.0414,0
3210,0.3637,0.1954,9.881,-0.0056,-0.0281,0.0107,0
3230,-0.2503,0.4601,9.283,0.0097,-0.0535,0.005,0
3250,0.0047,0.1334,9.7215,0.0184,0.0005,0.0509,0
3270,0.1962,-0.1288,9.8976,-0.0429,-0.0218,0.0243,0
3290,0.075,0.1247,10.1647,-0.0082,-0.0124,-0.0076,0
3311,0.1857,0.0741,9.5656,0.0237,0.0392,-0.0005,0
3331,0.2194,0.0807,9.9485,-0.0506,-0.0157,0.0236,0
3351,0.038,0.2939,9.9799,-0.0549,-0.0336,0.0173,0
3371,0.1084,0.239,9.5325,-0.048,-0.0427,-0.0695,0
3391,0.1265,0.1652,9.5613,-0.0419,-0.0049,0.0527,0
3411,0.0039,0.1701,10.1059,0.008,-0.0095,0.0046,0
3431,-0.1587,0.0656,9.8822,0.0315,-0.0295,-0.0083,0
3451,0.1153,0.3515,9.4008,-0.0491,0.0403,0.0244,0
3471,-0.0033,0.006,9.6231,0.014,0.0474,-0.0603,0
3491,-0.0727,0.2031,9.9078,0.0027,0.0196,-0.0262,0
3511,-0.2367,-0.0898,9.6337,0.0033,-0.0007,-0.078,0
3531,0.0304,0.2609,9.9724,0.0014,-0.0061,0.0099,0
3551,0.1514,0.0741,9.4292,0.0468,-0.0235,0.0343,0
3571,-0.3158,0.1895,9.8951,-0.0352,0.034,0.0138,0
3591,0.1784,0.0753,10.1066,0.0223,0.0175,-0.0309,0
3612,-0.1612,0.1485,10.0532,-0.0055,0.0297,0.0094,0
3632,-0.1003,-0.139,9.7592,-0.0231,0.0709,0.0044,0
3652,0.1447,0.0979,9.8998,-0.006,-0.0079,-0.0408,0
3672,0.0472,0.1815,9.8368,0.031,-0.0204,0.0211,0
3692,-0.0436,0.0772,9.6085,0.0261,0.0452,0.0099,0
3712,0.0481,0.1748,9.6288,0.0282,0.0502,-0.0154,0
3732,-0.0175,0.2323,9.7059,-0.0113,0.0244,-0.0317,0
3752,-0.1216,0.2717,10.1306,0.0612,0.0254,0.0275,0
3772,0.2552,0.228,9.7223,-0.038,0.0546,0.0384,0
3792,0.0086,0.0984,9.84,0.0072,-0.0344,0.0058,0
3812,0.1641,0.122,9.9179,0.0135,-0.0446,0.0071,0
3832,0.0906,0.1964,10.1639,0.0092,0.007,0.0118,0
3852,-0.0275,0.0348,9.4575,-0.0311,0.0562,-0.0061,0
3872,-0.2534,0.3617,9.6596,-0.0432,0.0348,0.0011,0
3892,0.0407,0.1985,9.4815,-0.0015,0.0216,-0.0003,0
3913,-0.0868,0.2409,9.7075,0.0443,-0.0368,0.0458,0
3933,-0.0694,0.2075,9.7028,0.0231,0.0103,0.0089,0
3953,-0.0636,0.3964,9.7643,0.0439,-0.0197,-0.0062,0
3973,-0.0041,0.3004,10.1212,0.0387,0.053,-0.0071,0
3993,0.0384,0.5742,9.7403,-0.0522,-0.0188,0.0179,0
4013,0.103,0.2284,9.8841,0.0169,0.0011,0.0568,0
4033,-0.1628,0.193,9.833,0.0487,-0.0396,0.0244,0
4053,-0.1118,0.229,9.6066,-0.0058,0.0191,-0.026,0
4073,-0.1105,0.2666,10.0471,-0.0041,0.0087,0.0201,0
4093,-0.0346,0.2711,9.755,0.0236,-0.0145,-0.0007,0
4113,0.1324,-0.0192,9.9532,-0.0221,-0.0114,-0.0143,0
4133,-0.0533,0.1992,9.6562,-0.0123,0.0305,-0.0294,0
4153,-0.1013,0.3057,10.0392,0.0368,0.0222,0.0304,0
4173,-0.193,0.3728,9.9145,0.0512,-0.0018,0.0248,0
4193,-0.1216,-0.0308,9.6645,0.0235,-0.0001,-0.056,0
4214,-0.0228,0.0297,9.8608,-0.0129,0.0239,0.0151,0
4234,0.1028,0.1499,9.7435,0.0437,0.0634,0.071,0
4254,0.0077,0.1108,9.9758,0.0111,0.0133,-0.0488,0
4274,0.0882,-0.0932,9.8166,0.0197,-0.0376,-0.0195,0
4294,-0.1811,0.2115,10.149,-0.0677,0.0335,-0.0238,0
4314,0.0695,0.1256,9.5143,-0.0207,0.0331,-0.0626,0
4334,-0.0455,0.2414,9.7835,0.0197,0.0033,0.0187,0
4354,-0.0992,-0.0393,9.8368,-0.0531,0.0571,0.0253,0
4374,-0.0373,-0.0184,9.4921,0.072,0.0384,0.0062,0
4394,-0.1564,0.1559,10.0622,0.0154,0.015,-0.0291,0
4414,-0.1455,-0.1148,9.7052,0.0388,0.0698,-0.0429,0
4434,-0.2245,0.2419,9.8543,0.002,-0.0031,-0.0015,0
4454,-0.18,0.1711,9.8776,-0.0335,0.0054,-0.0194,0
4474,0.0322,-0.062,9.7868,0.0037,-0.0156,-0.0118,0
4494,0.1068,0.1157,9.6843,0.0498,0.0163,0.0024,0
4515,0.0613,0.2697,10.0348,0.0126,-0.0438,0.0253,0
4535,0.0441,-0.0171,10.0735,-0.0018,-0.0302,0.0204,0
4555,0.0532,-0.0235,9.9938,-0.0068,-0.0135,0.0578,0
4575,-0.0856,0.2199,9.2962,-0.0111,0.0498,-0.0302,0
4595,-0.0998,0.2165,10.1846,-0.0385,0.0122,0.0391,0
4615,-0.2742,0.1558,10.081,0.037,0.0089,-0.0165,0
4635,0.3413,0.2415,9.8619,0.0025,0.0136,0.0319,0
4655,-0.0523,0.2339,9.8579,-0.016,-0.0029,-0.0277,0
4675,0.1677,0.2553,9.8023,0.0357,0.043,0.0029,0
4695,0.0709,-0.0259,9.7809,0.0289,0.019,0.0486,0
4715,0.0929,0.3618,9.6803,0.019,-0.0611,0.019,0
4735,0.1623,0.0277,9.8077,0.0253,-0.0289,-0.0145,0
4755,0.0004,0.2436,9.971,0.0003,0.0239,0.0343,0
4775,-0.0771,0.1392,9.7373,-0.0027,0.0474,-0.0085,0
4795,-0.032,0.1208,10.0624,-0.0137,0.0109,0.0237,0
4816,0.2984,0.3387,9.2888,-0.012,0.0007,0.0744,0
4836,0.1992,0.305,9.8104,-0.0034,-0.0001,-0.0133,0
4856,0.1637,0.026,9.2749,-0.0164,0.0079,-0.0226,0
4876,0.2512,0.0438,9.6454,0.003,-0.0078,0.0076,0
4896,0.1261,0.0265,10.0274,-0.0058,0.0048,0.0289,0
4916,0.183,0.2264,10.0015,0.0236,0.0437,0.0102,0
4936,-0.0413,0.0041,9.831,0.021,-0.0093,0.0044,0
4956,-0.0478,0.1019,9.9221,0.0154,-0.0193,-0.0123,0
4976,-0.1493,0.0922,9.5755,-0.0027,-0.0039,0.0382,0
4996,-0.0144,-0.0442,9.6383,0.0603,0.0258,-0.0179,0
5016,-0.0943,0.0516,9.8876,-0.0244,-0.0303,0.0437,0
5036,0.0946,0.513,9.8096,-0.042,0.0211,0.0269,0
5056,-0.0737,0.0554,9.7997,0.0122,0.0418,0.0185,0
5076,-0.276,0.3697,10.0432,-0.0041,0.001,0.0136,0
5096,-0.0597,0.154,10.0239,0.0149,-0.0117,0.0312,0
5117,-0.0609,-0.0129,9.7319,-0.0111,0.0093,-0.0235,0
5137,0.0656,-0.2271,9.4899,-0.0035,0.0054,0.0457,0
5157,0.2027,0.3695,9.9756,0.0278,-0.0156,-0.0091,0
5177,-0.0944,0.3568,10.0526,-0.0328,-0.0108,-0.047,0
5197,-0.0248,0.1337,10.1309,-0.0211,0.0784,0.0165,0
5217,0.1486,0.1371,9.8787,-0.043,-0.0055,-0.0078,0
5237,-0.0566,0.1565,9.7102,-0.0421,0.0095,0.0213,0
5257,0.0293,0.3242,9.2772,-0.0146,0.0304,-0.0141,0
5277,-0.2064,0.0233,9.8034,-0.0292,-0.0264,0.0078,0
5297,-0.0487,-0.0598,9.7378,-0.0019,-0.0118,0.0062,0
5317,-0.0672,0.1451,9.547,0.0131,0.0911,0.0639,0
5337,-0.0051,0.2294,9.7013,0.0519,0.0082,0.0445,0
5357,0.2264,-0.0309,10.0581,-0.0297,0.0101,-0.0046,0
5377,-0.2933,0.1452,9.73,-0.0058,-0.0079,-0.0048,0
5397,-0.1568,0.1725,9.7362,-0.0304,-0.0127,0.0306,0
5418,-0.2246,0.1685,9.5463,-0.0027,-0.0164,0.0145,0
5438,0.2929,0.1833,10.0252,-0.0479,-0.0022,-0.0088,0
5458,-0.1741,-0.1084,9.8293,-0.0011,0.0273,0.0227,0
5478,0.1395,-0.1674,10.0533,-0.0282,-0.0502,-0.041,0
5498,0.3155,0.2864,9.7467,-0.0265,0.0299,-0.0107,0
5518,0.0042,0.2443,9.7079,-0.0658,0.0364,-0.0279,0
5538,0.0406,0.0085,9.9373,-0.0238,0.0286,-0.0267,0
5558,0.2107,0.0586,9.8771,0.0011,0.0058,0.0184,0
5578,0.0335,0.1076,9.5881,0.006,0.0203,0.0416,0
5598,-0.0201,0.0437,10.0549,0.0354,0.0045,-0.0478,0
5618,-0.1149,-0.2606,10.136,0.0231,0.0304,-0.0032,0
5638,0.0871,-0.1655,9.8493,0.0273,0.0639,-0.019,0
5658,-0.0741,0.1652,9.9054,-0.0121,-0.0154,0.0489,0
5678,-0.092,0.0708,10.0583,0.0014,0.0031,0.0373,0
5698,0.0835,-0.0639,9.7753,-0.0085,-0.0374,-0.041,0
5719,-0.1506,0.0841,9.6814,0.0223,-0.0552,0.0565,0
5739,-0.2052,0.0155,10.1853,-0.0229,-0.0053,0.0007,0
5759,0.2264,-0.1,10.0363,-0.009,-0.0257,0.0018,0
5779,-0.1059,-0.0417,9.7205,0.0136,-0.0177,-0.0001,0
5799,-0.1919,0.1011,9.6192,0.0039,0.006,-0.0008,0
5819,0.0956,0.0117,9.8175,-0.0397,-0.0786,-0.0821,0
5839,-0.0215,-0.1746,9.877,-0.0072,-0.0229,-0.0107,0
5859,-0.0206,0.1065,10.0757,0.0086,-0.0052,0.0055,0
5879,0.068,0.0632,9.5878,-0.0136,0.022,-0.0165,0
5899,0.3269,0.1168,9.5645,-0.001,-0.0245,-0.0044,0
5919,0.0324,0.2186,9.7915,0.0144,-0.0265,0.0094,0
5939,-0.0706,0.0043,9.9097,0.0394,0.0381,0.0079,0
5959,-0.2018,-0.1682,9.749,0.008,0.0655,0.0886,0
5979,-0.0325,0.063,9.8216,-0.0394,-0.0164,0.0246,0
6000,-0.4298,0.0409,9.5649,0.015,-0.0439,-0.0266,0
