timestamp_ms,ax,ay,az,gx,gy,gz,label
0,0.0554,0.0827,9.995,0.0066,-0.0241,0.0109,0
20,0.0225,-0.0592,9.6207,-0.0388,0.0485,-0.0119,0
40,0.004,0.0776,9.9504,0.0019,-0.0016,0.0078,0
60,-0.0553,-0.0567,9.7166,0.0106,-0.0078,0.011,0
80,0.0288,-0.119,9.9149,-0.0215,-0.0017,0.0076,0
100,0.0415,0.1886,9.7236,-0.0577,0.025,0.0129,0
120,-0.2004,0.082,10.0076,0.0162,-0.0097,-0.0213,0
140,-0.2546,-0.248,9.6227,-0.0075,-0.0112,-0.0072,0
160,0.1108,-0.2716,9.5857,0.003,-0.0325,0.0205,0
180,0.1772,-0.1432,9.9437,0.0009,0.0032,-0.0477,0
200,0.1694,-0.2292,9.9245,-0.0231,0.037,0.0297,0
220,0.2266,-0.115,9.804,0.0243,0.0056,0.0259,0
240,0.0345,-0.0717,10.0926,0.0527,-0.0329,-0.0313,0
260,-0.1865,0.0494,9.722,0.0452,0.0223,0.0395,0
280,0.0346,0.1086,10.0398,-0.0268,-0.0199,-0.0285,0
301,0.0388,0.213,9.9278,-0.034,-0.0423,-0.0674,0
321,0.1274,0.1105,9.9058,-0.0103,-0.0004,-0.0253,0
341,-0.0463,0.1892,10.0037,0.0014,-0.0377,0.0023,0
361,-0.1458,0.2897,9.5285,0.0668,0.0284,0.0042,0
381,0.0697,-0.1043,9.8103,-0.0431,-0.0152,0.0357,0
401,0.0123,-0.1796,9.6366,0.0059,-0.0042,0.0955,0
421,0.0282,-0.3747,9.8211,0.0013,0.0398,0.0099,0
441,-0.1719,-0.1075,10.1182,-0.0347,0.0098,-0.0206,0
461,-0.0749,0.0313,9.6597,-0.034,-0.0206,0.0105,0
481,0.1563,0.2669,10.001,-0.021,0.0229,0.0048,0
501,-0.2343,-0.0312,9.7597,-0.0739,0.0323,-0.0985,0
521,0.021,-0.1144,9.6689,-0.0216,-0.0202,-0.0398,0
541,0.111,0.014,9.9146,-0.0701,-0.067,0.0587,0
561,-0.0906,-0.133,10.1409,0.011,-0.0275,-0.0368,0
581,0.0962,-0.0742,9.3658,0.0228,0.0087,0.0249,0
602,0.1868,-0.015,9.869,0.0264,0.0257,-0.0389,0
622,0.193,-0.1483,9.7283,0.0007,0.0011,-0.0053,0
642,-0.194,0.0454,9.3446,-0.0279,-0.0047,0.0321,0
662,0.1332,-0.084,9.7084,-0.0973,-0.0358,0.0058,0
682,-0.0422,-0.2005,9.8366,-0.0009,-0.0119,0.038,0
702,0.0416,0.0705,9.9593,0.0352,0.0056,0.045,0
722,0.1262,0.1202,9.7902,0.0202,-0.0302,0.041,0
742,-0.1581,-0.0889,9.4553,-0.0026,-0.0209,0.029,0
762,0.0132,-0.1857,10.0113,0.0035,-0.0098,-0.0065,0
782,-0.1411,0.0431,9.9711,0.004,-0.0688,0.0034,0
802,-0.0941,-0.2507,9.869,0.0579,-0.012,-0.0166,0
822,-0.0141,0.1695,9.7412,0.0042,0.0046,-0.036,0
842,0.1918,0.1915,9.9079,-0.0024,-0.067,-0.0084,0
862,0.1122,-0.3867,9.591,-0.0051,0.025,0.0217,0
882,-0.1294,0.1472,9.8505,-0.0142,0.0825,0.0329,0
903,-0.0068,0.1463,9.9493,0.0119,-0.0114,0.0428,0
923,0.0645,0.2024,10.1705,-0.0408,0.013,-0.0343,0
943,-0.0203,-0.0685,10.3341,-0.0471,-0.0346,-0.0096,0
963,-0.0134,0.1704,10.0024,-0.0047,0.0411,0.0697,0
983,0.056,-0.1095,9.6092,-0.0532,-0.0254,0.0025,0
1003,-0.1355,-0.0541,9.8978,-0.0009,0.0101,0.051,0
1023,0.0397,-0.0969,9.5663,0.0288,0.0059,-0.0225,0
1043,0.3609,-0.1507,9.4901,-0.0509,-0.0188,-0.0021,0
1063,-0.0158,0.1408,10.0127,0.0379,-0.033,0.0088,0
1083,0.1226,-0.1224,9.5405,0.0451,0.0577,0.0194,0
1103,-0.0555,-0.0269,9.6433,0.049,0.0512,-0.0201,0
1123,-0.1087,0.0678,9.579,-0.0678,-0.0184,0.0046,0
1143,0.1599,-0.1372,9.7739,0.0074,0.0234,-0.0548,0
1163,0.1059,-0.2165,10.1774,0.0074,-0.0257,-0.0127,0
1183,-0.1758,0.1856,9.6899,-0.0309,0.0217,0.0198,0
1204,-0.0861,-0.2319,9.8357,-0.0347,-0.0156,-0.0069,0
1224,-0.0053,-0.1229,9.8032,0.0383,0.0147,-0.0224,0
1244,0.0762,0.2388,9.6231,-0.0071,0.0063,-0.0212,0
1264,0.0361,-0.0435,9.8742,0.0302,0.0279,-0.0489,0
1284,-0.2203,-0.0985,9.8286,-0.0021,0.0435,-0.0207,0
1304,-0.1751,-0.1441,9.3743,0.0237,0.0275,-0.0279,0
1324,0.0681,-0.2341,9.8867,-0.0261,-0.0152,-0.029,0
1344,0.0262,-0.1096,9.6047,0.0096,-0.0173,-0.0076,0
1364,-0.0096,-0.2204,9.8581,0.0286,-0.0091,0.0204,0
1384,0.1921,-0.0556,9.8665,-0.0345,0.0426,0.0372,0
1404,0.2286,-0.0989,9.4738,-0.03,0.0858,-0.0435,0
1424,-0.3001,-0.2827,9.9,-0.0399,-0.0193,0.0154,0
1444,0.0702,-0.1508,9.8691,-0.0749,-0.0264,0.0179,0
1464,-0.12,0.0372,9.7743,-0.0527,0.0292,-0.0362,0
1484,0.1899,0.1049,9.9959,0.0177,0.0466,-0.0169,0
1505,-0.009,-0.0858,10.1677,-0.0023,0.059,0.0182,0
1525,0.1904,-0.0986,9.7118,-0.0213,-0.0434,0.0826,0
1545,-0.1711,0.0197,9.9515,-0.0483,0.044,0.0001,0
1565,0.0501,0.065,9.8815,0.0477,0.0379,0.0214,0
1585,-0.0099,-0.0577,9.7176,0.0131,-0.0017,-0.0028,0
1605,0.103,0.1593,9.5574,0.0274,-0.0179,-0.0092,0
1625,0.0775,-0.005,9.8114,0.0095,0.0162,-0.0002,0
1645,-0.1019,0.1284,9.8027,0.0158,0.0568,-0.0186,0
1665,0.1048,0.1166,9.566,0.0314,-0.0266,-0.0145,0
1685,0.1048,0.157,9.7436,0.0053,0.024,0.0252,0
1705,0.0104,-0.1156,9.7937,0.0161,-0.0059,0.0086,0
1725,0.133,-0.2259,9.7462,0.0257,-0.0337,0.0106,0
1745,0.2212,0.1033,9.5303,0.0144,0.0309,-0.0041,0
1765,-0.0791,-0.0419,9.2121,-0.0588,-0.032,0.0381,0
1785,0.1133,-0.2545,9.6188,0.001,0.0104,-0.0098,0
1806,-0.2684,-0.2815,9.6481,-0.0188,-0.0174,0.044,0
1826,0.0332,0.0732,9.6135,-0.0157,-0.0005,0.0648,0
1846,0.0211,-0.1919,9.8722,-0.0414,-0.0178,0.0262,0
1866,0.0463,0.2218,9.8754,0.0082,0.0321,-0.0219,0
1886,0.1836,-0.181,9.4868,-0.022,0.0036,-0.0246,0
1906,0.1596,-0.0564,9.7842,0.0427,-0.0024,0.0081,0
1926,-0.251,0.0988,9.8447,-0.0715,-0.0204,-0.0018,0
1946,0.2205,-0.1871,9.6683,-0.0013,-0.019,0.0103,0
1966,0.1712,0.1251,9.7967,0.0094,-0.0049,-0.0195,0
1986,0.0147,-0.2679,9.7097,0.0357,-0.0176,-0.0094,0
2006,-0.0097,0.1599,9.6319,0.0001,0.0238,0.0094,0
2026,-0.0979,-0.2212,9.6418,0.0237,0.006,0.0019,0
2046,0.0555,-0.0601,9.6115,0.0294,0.0454,-0.0044,0
2066,-0.0828,0.15,9.6897,-0.0317,0.0407,0.0219,0
2086,0.0841,0.2548,9.7837,0.0344,-0.038,-0.0475,0
2107,-0.1603,-0.2671,9.7276,-0.0728,-0.0351,0.0313,0
2127,0.0138,-0.051,9.8113,0.0185,0.0039,-0.0035,0
2147,-0.0819,0.2586,9.738,-0.0005,0.0209,0.0133,0
2167,-0.1685,0.0929,9.7921,0.0396,-0.0058,-0.0463,0
2187,-0.0189,0.1128,9.9377,0.029,-0.0511,-0.0102,0
2207,0.3226,-0.0501,10.0558,-0.0169,0.0174,0.0436,0
2227,0.2035,-0.2585,9.6541,-0.0298,0.0222,0.0285,0
2247,0.1636,-0.168,9.8113,-0.017,0.0063,0.0248,0
2267,-0.006,-0.1181,9.8563,0.0144,0.0007,-0.0265,0
2287,-0.2377,0.0089,9.79,0.0172,0.0223,0.0167,0
2307,-0.2059,-0.3292,9.8748,0.0159,0.0279,-0.014,0
2327,-0.0623,0.0005,9.8945,0.0158,-0.0284,0.0232,0
2347,-0.0986,-0.0724,9.9106,-0.0739,-0.0044,0.0158,0
2367,0.2778,-0.2577,9.4989,-0.0637,-0.0063,-0.0344,0
2387,-0.1342,0.0253,10.1019,0.0784,0.0206,-0.0334,0
2408,0.1557,0.0076,10.0794,-0.0337,0.0498,0.0054,0
2428,0.0802,-0.0055,9.686,-0.0205,-0.0692,0.0385,0
2448,0.0969,-0.0115,9.8058,-0.0304,0.0048,-0.0285,0
2468,0.0715,-0.123,9.652,-0.0372,-0.0421,-0.0076,0
2488,-0.0282,0.125,9.7621,-0.0314,-0.0099,0.0027,0
2508,-0.0641,0.0613,9.3348,0.0228,-0.0739,-0.0362,0
2528,-0.0074,0.2096,10.0162,-0.0007,0.0511,0.0223,0
2548,-0.1349,0.094,10.1552,0.0121,0.0276,-0.024,0
2568,-0.0346,-0.1127,9.8809,0.0269,0.0205,-0.0055,0
2588,0.221,0.049,9.9693,0.0218,-0.0293,0.0078,0
2608,-0.1107,0.1884,9.8908,0.0192,-0.0056,0.0493,0
2628,0.0048,0.0186,9.6912,-0.0083,-0.0368,0.0219,0
2648,-0.1066,-0.028,10.0051,0.0287,0.0363,-0.0401,0
2668,-0.1782,-0.1891,10.0798,0.0531,-0.0361,0.0247,0
2688,0.2363,-0.0876,9.6723,-0.0268,-0.0189,-0.0303,0
2709,-0.0516,0.014,10.0573,0.0021,0.0381,-0.02,0
2729,-0.1505,0.3273,9.4796,0.0607,-0.0109,0.0318,0
2749,-0.0434,-0.0823,9.5844,0.0143,0.038,-0.0383,0
2769,-0.0699,0.0636,9.8086,0.0308,0.0126,-0.0065,0
2789,-0.0732,-0.0271,10.0176,0.0028,0.0365,0.0117,0
2809,0.1828,-0.1561,9.6448,-0.0365,-0.0009,-0.0078,0
2829,-0.0846,0.0724,9.802,-0.0044,0.0388,0.0172,0
2849,-0.0437,0.1143,9.9487,0.0593,0.0031,0.0163,0
2869,0.0067,-0.029,9.7294,0.0184,0.0286,-0.0487,0
2889,-0.1866,-0.106,10.062,-0.0162,-0.0189,0.0144,0
2909,-0.0557,-0.2151,9.9893,-0.0232,0.0089,0.0186,0
2929,0.1469,0.1735,10.0251,0.0031,-0.0074,0.0362,0
2949,0.027,0.0246,9.757,-0.0147,-0.0316,-0.0369,0
2969,-0.339,-0.1089,9.6768,-0.0926,0.0218,-0.0239,0
2989,0.2687,0.191,9.8909,-0.0321,-0.0168,0.0066,0
3010,0.0666,-0.1779,9.7982,-0.0245,0.004,-0.0221,0
3030,0.04,-0.3568,11.5572,0.039,-0.0433,0.001,0
3050,0.1287,-1.2752,13.4152,-0.0444,-0.018,-0.0072,0
3070,0.1681,-1.3876,15.4459,0.0054,0.0686,-0.01,0
3090,0.1056,-1.9923,16.5014,-0.0419,-0.0293,-0.0095,0
3110,-0.3201,-2.1113,17.3731,-0.0089,0.031,-0.0639,0
3130,0.056,-2.461,18.0914,0.0144,-0.0312,0.028,0
3150,-0.1018,-2.3978,18.5251,-0.0435,0.0137,0.0021,0
3170,0.0821,-2.4267,18.0097,-0.0251,-0.0324,0.0425,0
3190,0.1595,-2.25,17.6766,0.0026,-0.0288,-0.019,0
3210,0.1014,-1.9522,16.6033,-0.0426,-0.0634,-0.0289,0
3230,-0.0336,-1.6243,15.217,0.0367,0.0238,-0.0084,0
3250,0.1274,-1.1074,13.4832,-0.0188,-0.0205,0.0208,0
3270,-0.0707,-0.6449,11.6705,0.0422,-0.0377,-0.0592,0
3290,0.0695,-0.0328,10.211,-0.0096,0.0128,0.0451,0
3311,-0.0872,0.0424,9.7504,-0.0168,-0.0191,-0.004,0
3331,-0.1287,0.0206,9.7998,0.0167,0.0246,0.0389,0
3351,0.2152,0.4049,9.8275,0.0208,-0.005,-0.0743,0
3371,0.2718,-0.0492,9.5096,0.0137,0.0011,0.0239,0
3391,0.2254,-0.0727,9.8868,-0.0089,0.0053,0.0636,0
3411,0.1416,0.0762,9.8684,0.0254,0.0195,-0.0835,0
3431,0.1198,-0.2741,9.817,0.0667,0.0565,0.0421,0
3451,-0.0262,-0.0305,9.691,-0.0008,-0.0076,-0.0048,0
3471,-0.0014,-0.0307,9.7621,0.0493,0.0469,0.0292,0
3491,-0.1676,0.0794,9.6062,0.0296,-0.0322,0.0205,0
3511,0.3355,0.0886,9.754,0.023,-0.0519,0.0432,0
3531,0.3732,0.0642,9.7269,0.0183,0.0505,-0.0344,0
3551,0.0843,-0.0474,9.9475,0.0099,-0.038,-0.0299,0
3571,-0.2965,-0.0503,9.9051,0.0217,0.0395,0.0368,0
3591,0.1065,-0.0565,9.8432,-0.0393,0.0118,0.0695,0
3612,-0.1419,0.0798,9.7851,-0.0093,0.039,-0.0319,0
3632,0.1375,-0.1806,9.8933,-0.0117,0.0238,-0.0196,0
3652,-0.1368,-0.272,9.6639,0.0281,0.0336,0.0404,0
3672,-0.0435,0.1067,9.8277,0.033,0.007,-0.0107,0
3692,-0.1523,0.3088,9.7135,0.0408,0.0211,0.0206,0
3712,0.1968,-0.1387,9.595,-0.0052,-0.0261,0.014,0
3732,0.1175,0.141,9.8394,0.0007,0.0054,0.0014,0
3752,0.2694,0.0831,9.7735,0.0012,-0.0193,-0.0322,0
3772,-0.0054,-0.114,9.8849,-0.0518,0.024,-0.0455,0
3792,-0.0798,-0.0291,9.6213,-0.0229,0.0225,0.0001,0
3812,0.0278,-0.0956,9.6624,-0.0469,-0.0114,0.0084,0
3832,-0.2246,0.0146,9.7442,-0.0374,0.1182,-0.0092,0
3852,-0.184,0.0028,9.7677,0.009,-0.0272,0.045,0
3872,-0.2317,-0.0927,9.77,-0.0141,0.0007,0.0238,0
3892,0.0877,-0.1195,9.7248,0.02,-0.0399,0.0181,0
3913,0.0528,0.0174,9.7137,0.0442,-0.0089,0.0165,0
3933,0.1491,-0.082,9.9673,-0.0164,-0.0094,-0.0203,0
3953,-0.358,-0.3335,9.7418,-0.0071,-0.0193,0.038,0
3973,-0.0259,0.0618,9.7725,-0.0298,-0.038,0.0062,0
3993,-0.0314,0.1105,9.7206,-0.0043,-0.0431,0.0153,0
4013,-0.1589,-0.1031,9.8092,-0.0295,-0.0176,-0.0174,0
4033,-0.1505,0.1667,10.0345,0.0552,-0.0246,0.0319,0
4053,-0.0591,0.1025,9.8077,-0.0381,0.037,-0.0072,0
4073,-0.1073,-0.2448,9.7823,0.0016,0.0426,0.0147,0
4093,0.2002,-0.0761,9.9605,0.0086,0.022,0.0461,0
4113,0.1913,0.3081,9.8674,-0.0021,0.0265,0.0154,0
4133,-0.2005,-0.1583,9.6801,0.005,-0.0138,-0.0445,0
4153,-0.0671,0.1448,9.6118,0.0179,0.018,-0.0078,0
4173,-0.1451,0.1729,9.4847,-0.0182,-0.0095,-0.0307,0
4193,0.0304,-0.0542,9.8784,-0.0294,0.0107,-0.0035,0
4214,-0.161,0.0284,9.7022,-0.0563,0.0314,0.0074,0
4234,-0.1523,0.0376,10.0318,-0.0312,-0.027,-0.0439,0
4254,0.1897,-0.0814,9.8493,-0.026,-0.006,-0.0136,0
4274,0.0911,0.0194,9.7998,0.007,0.0047,-0.0069,0
4294,0.0144,0.0693,9.9142,0.0325,0.007,0.0879,0
4314,0.0666,-0.1181,9.9428,-0.069,0.0149,0.0263,0
4334,0.0243,-0.2261,9.9047,-0.0022,-0.0049,-0.0082,0
4354,0.1073,-0.0178,10.0162,-0.0119,-0.0033,0.0137,0
4374,0.2359,0.1376,9.838,0.0307,0.0358,0.0397,0
4394,0.1002,-0.1888,10.0279,-0.0147,0.0067,0.0047,0
4414,-0.0559,-0.22,9.5109,0.0041,-0.0284,-0.0128,0
4434,-0.0379,-0.0108,9.7027,-0.0092,-0.0059,-0.053,0
4454,0.0849,0.0168,10.1081,-0.009,-0.0803,-0.0163,0
4474,0.1025,-0.0171,9.8736,0.0007,0.0418,0.0263,0
4494,0.0591,-0.1271,9.6672,0.007,0.001,-0.0679,0
4515,0.0261,-0.2356,10.1183,0.0541,-0.0447,0.0523,0
4535,0.1214,0.0344,9.9915,-0.0026,-0.0034,0.0274,0
4555,0.2459,0.1134,10.0238,0.0002,0.019,0.0168,0
4575,0.0593,0.0534,9.9979,-0.0044,0.0155,0.001,0
4595,0.2106,0.1217,9.8612,-0.0025,0.0372,-0.0177,0
4615,-0.1003,-0.1367,9.6833,-0.0188,-0.0077,0.013,0
4635,-0.0619,-0.2299,9.8047,-0.1051,0.0189,0.0054,0
4655,0.1393,-0.0753,9.979,0.0111,-0.04,-0.0035,0
4675,0.2653,0.1222,9.6636,-0.0129,-0.0517,0.012,0
4695,-0.0798,-0.0623,9.4481,-0.0217,-0.0183,-0.0106,0
4715,-0.1218,0.09,9.8016,0.0146,0.0114,0.0123,0
4735,-0.0105,-0.277,10.0826,-0.0068,-0.0023,0.0291,0
4755,-0.2315,0.0889,9.9758,0.0664,-0.0064,0.0268,0
4775,0.0289,-0.0851,9.8375,0.0065,-0.0172,-0.0604,0
4795,-0.2432,-0.0794,10.2089,-0.0065,0.0035,0.0117,0
4816,0.1836,-0.1289,9.7178,0.0381,-0.0631,0.0137,0
4836,-0.0601,0.0642,9.8565,0.0009,0.0058,0.047,0
4856,-0.3059,-0.0258,9.9036,-0.0108,0.0491,0.0306,0
4876,0.0693,0.0362,9.5628,-0.03,0.0258,-0.0259,0
4896,-0.1491,0.1044,10.0237,-0.037,-0.0169,0.0454,0
4916,-0.2131,-0.1842,10.0867,-0.0075,-0.021,0.0305,0
4936,-0.005,-0.1413,9.866,-0.0007,-0.0074,-0.0348,0
4956,0.0755,-0.0374,9.7371,0.0437,0.0154,-0.084,0
4976,-0.0167,-0.0774,9.7965,0.0116,-0.0035,-0.0007,0
4996,-0.1958,-0.0791,9.9709,0.0071,-0.0293,-0.0339,0
5016,-0.2228,-0.0526,9.929,0.0528,-0.0399,-0.0329,0
5036,0.0429,-0.0713,10.149,0.0171,-0.0393,-0.054,0
5056,0.1716,-0.0477,9.8031,-0.0026,-0.0335,0.0311,0
5076,0.089,0.0484,10.0768,0.0019,0.0006,0.0222,0
5096,-0.1643,-0.1576,9.5326,-0.0447,0.0151,0.0046,0
5117,-0.103,-0.1744,9.8705,0.0316,0.0065,0.0115,0
5137,-0.0648,-0.0803,9.8555,-0.0072,-0.0172,0.0026,0
5157,-0.2003,-0.1063,10.1644,0.0123,0.0777,0.0037,0
5177,-0.1216,0.0685,9.892,0.0319,0.0511,0.0336,0
5197,0.1333,-0.2001,9.7823,-0.0391,0.0163,0.0376,0
5217,-0.1355,0.0721,9.4392,-0.0616,-0.038,-0.0011,0
5237,-0.0292,-0.1189,9.6346,-0.0554,-0.0061,0.0047,0
5257,0.2257,0.0399,9.761,0.0286,0.0026,0.0244,0
5277,-0.1168,0.1215,9.8815,0.0669,-0.0063,-0.0334,0
5297,0.0049,-0.0758,10.121,0.04,0.0312,0.016,0
5317,0.0844,-0.1292,9.8442,0.007,-0.0064,-0.0019,0
5337,0.2043,0.0014,9.6088,0.0172,-0.0132,0.0038,0
5357,-0.3144,0.1443,9.6867,0.0072,0.0144,0.0348,0
5377,-0.0239,0.0468,9.6643,-0.0225,-0.0046,0.0489,0
5397,-0.1472,0.0423,9.843,-0.0629,0.0131,-0.0253,0
5418,0.1864,0.228,9.8703,0.0102,-0.0267,0.0544,0
5438,-0.0877,0.183,9.5955,0.0093,-0.0065,0.0124,0
5458,-0.0969,-0.0747,9.9247,0.0547,-0.0357,0.0074,0
5478,-0.123,-0.1783,10.0611,-0.0187,0.0437,0.0606,0
5498,-0.1031,0.1504,9.744,-0.0335,0.0076,-0.0355,0
5518,0.1314,-0.0007,10.0216,0.0363,0.0559,0.011,0
5538,-0.0897,0.0979,9.5373,-0.007,-0.0118,-0.0288,0
5558,0.1298,-0.1267,9.8299,0.04,0.0039,0.0358,0
5578,0.1454,-0.1831,10.0574,0.0035,0.0055,0.0305,0
5598,-0.021,0.1929,9.8339,0.0147,0.0117,-0.048,0
5618,-0.0355,0.019,9.5994,0.0831,0.0263,0.0296,0
5638,-0.0541,0.0466,9.9454,-0.0272,-0.0005,-0.0438,0
5658,0.0713,0.0825,9.6033,-0.0281,0.0135,0.01,0
5678,0.0885,-0.0518,9.699,0.039,0.0201,0.0017,0
5698,-0.3466,-0.0105,9.6857,0.0033,0.0127,-0.0466,0
5719,-0.0556,-0.0469,9.9437,0.0133,0.0107,-0.0292,0
5739,-0.2119,0.1592,9.7798,-0.0027,-0.049,-0.019,0
5759,0.2962,0.103,10.0631,-0.0412,0.0353,-0.0189,0
5779,0.0769,-0.0532,9.9315,0.0383,0.0024,-0.0025,0
5799,0.1827,-0.0167,9.8467,-0.0349,0.0555,-0.0597,0
5819,0.0504,-0.3357,9.7858,-0.031,-0.0025,-0.0272,0
5839,-0.0034,-0.0161,9.946,0.0317,-0.0141,0.0192,0
5859,-0.0839,0.068,10.0474,0.036,0.0566,0.0322,0
5879,-0.2163,0.2947,9.8671,-0.0348,-0.0669,0.0339,0
5899,-0.1255,0.0246,9.9567,-0.0307,-0.0127,0.0441,0
5919,-0.0949,-0.1934,9.7618,0.0434,0.0194,0.0005,0
5939,-0.0987,-0.1345,9.354,0.0309,-0.0189,-0.0293,0
5959,0.1999,-0.0953,10.0032,-0.0302,0.0362,-0.0093,0
5979,-0.2032,-0.0056,9.8243,0.0226,-0.0237,0.0152,0
6000,0.2531,0.0464,9.8969,-0.0296,0.0233,-0.0006,0
