timestamp_ms,ax,ay,az,gx,gy,gz,label
0,-0.1253,-0.1047,10.0427,0.0041,-0.0117,0.0104,0
20,0.0506,-0.2425,9.7083,0.0086,-0.0027,0.0184,0
40,0.1426,-0.0007,9.8092,-0.0292,-0.0044,-0.0824,0
60,0.0926,0.0687,9.5121,-0.0585,-0.0365,-0.0447,0
80,-0.1901,0.0603,9.8097,0.0077,-0.0011,-0.0134,0
100,0.0326,-0.1848,9.7865,0.0357,-0.0096,0.0031,0
120,-0.1094,0.0017,9.9424,0.0029,0.0522,0.0322,0
140,-0.4108,-0.0164,9.8867,0.0073,0.0116,0.0286,0
160,-0.1661,-0.1383,9.8099,0.0426,0.0005,0.0154,0
180,0.4746,0.1992,9.6185,-0.0578,-0.012,-0.0141,0
200,0.092,-0.0963,9.7057,0.0306,-0.0002,-0.0417,0
220,-0.0203,-0.0577,10.0694,-0.0006,-0.0155,0.0754,0
240,-0.0197,0.1889,9.757,-0.0091,0.0629,-0.0479,0
260,-0.3035,0.0185,9.5877,-0.0057,-0.074,-0.0129,0
280,-0.0138,0.1662,9.7743,0.0224,0.0279,-0.0008,0
301,-0.0039,0.1528,9.4498,0.0232,0.0209,0.0196,0
321,-0.1694,-0.0153,9.5353,0.0154,0.0158,-0.0227,0
341,0.1141,-0.0005,9.9199,0.0005,-0.0017,0.0273,0
361,0.2101,0.0541,9.7382,0.0112,0.0278,-0.0553,0
381,-0.0478,-0.2368,9.5892,-0.0604,-0.0582,0.0717,0
401,0.0456,0.3303,9.7528,-0.0087,-0.051,-0.0482,0
421,0.0288,-0.2953,9.8929,0.0558,0.0311,-0.0282,0
441,-0.0051,-0.0907,10.124,0.0112,-0.0001,0.0491,0
461,-0.0112,0.0162,9.8751,-0.0464,-0.0061,-0.0848,0
481,0.2726,-0.0654,10.1169,-0.0201,-0.0776,-0.0031,0
501,0.0276,-0.1655,9.6638,0.0142,-0.0679,0.0135,0
521,-0.059,-0.1382,9.4182,0.0109,-0.0379,-0.0069,0
541,-0.0296,-0.1944,9.8743,0.0344,-0.0189,-0.0298,0
561,-0.0375,-0.0353,9.7706,-0.0247,-0.0086,0.0251,0
581,0.0594,0.1512,10.0943,0.0629,0.015,0.0064,0
602,-0.0143,0.2687,9.8298,-0.0104,0.0408,-0.0258,0
622,0.2425,0.0892,9.9742,0.0202,0.0098,0.0103,0
642,0.0495,0.1038,9.8995,0.0546,0.0072,-0.0298,0
662,0.1595,-0.0828,9.7922,-0.0409,0.0021,-0.0192,0
682,0.0474,-0.0778,9.5506,-0.0056,-0.0054,0.0036,0
702,-0.0279,0.0021,9.3717,-0.0267,-0.0137,-0.0191,0
722,0.0346,-0.1514,10.1165,-0.0373,0.0039,-0.0111,0
742,-0.18,-0.119,10.256,0.0779,0.0298,0.0341,0
762,-0.1023,-0.1085,9.9011,0.0024,-0.0092,0.0157,0
782,0.0358,-0.0944,9.9426,0.0478,0.0094,-0.0046,0
802,-0.0967,0.3622,9.5555,-0.052,-0.0562,0.0058,0
822,0.1098,-0.1448,9.9983,0.0537,-0.046,0.0354,0
842,-0.2569,-0.1104,9.7249,-0.0088,-0.0064,-0.0449,0
862,-0.1218,-0.0344,9.6547,-0.0123,0.0253,-0.0022,0
882,0.1552,-0.2239,9.7099,0.0295,-0.0025,0.0303,0
903,-0.0263,-0.047,9.9678,-0.0325,0.0055,-0.018,0
923,-0.0769,0.0478,9.7039,-0.007,-0.0035,0.0068,0
943,0.0885,0.1201,9.8927,0.0067,0.0298,-0.0497,0
963,-0.1868,-0.1911,9.6292,-0.0245,-0.0001,-0.013,0
983,-0.0501,-0.1694,9.8365,0.0227,-0.0251,0.019,0
1003,0.1382,-0.0333,10.1531,-0.0226,0.02,0.0041,0
1023,-0.0907,0.1224,9.6191,0.0067,0.0141,0.0459,0
1043,-0.1588,0.1576,9.664,0.0373,-0.0029,-0.0182,0
1063,0.0951,0.0225,9.7972,0.0565,0.0661,0.0024,0
1083,0.0772,-0.2414,9.9978,0.0004,0.0017,0.0154,0
1103,-0.2113,0.0538,10.017,0.0061,0.0288,0.0061,0
1123,0.01,0.27,9.9777,-0.0134,0.0117,-0.0294,0
1143,-0.1975,0.0967,9.5127,0.0363,0.0315,0.0136,0
1163,0.0371,-0.1347,9.6246,-0.0218,-0.0181,0.0143,0
1183,-0.0223,0.2415,9.7687,0.0018,-0.019,0.012,0
1204,0.0082,0.055,9.4009,-0.0543,-0.0184,0.0471,0
1224,-0.0845,-0.0272,9.8285,0.0373,0.0067,-0.0066,0
1244,0.0321,0.0386,10.0331,-0.0009,0.0105,-0.022,0
1264,0.0246,0.2986,10.0969,0.0282,0.0234,-0.0227,0
1284,0.0542,0.0242,9.7308,-0.0603,0.043,0.006,0
1304,-0.0243,0.0845,9.7902,-0.0229,-0.0137,-0.0173,0
1324,0.1706,0.1997,9.5049,-0.0024,-0.0083,-0.0084,0
1344,-0.0703,-0.1176,10.0095,0.0279,0.0111,0.0395,0
1364,-0.0925,0.2427,10.0994,0.0093,0.0333,-0.0234,0
1384,0.285,-0.131,9.7857,0.0403,0.0224,-0.0008,0
1404,0.0872,-0.0313,9.6674,-0.0102,0.0039,0.0502,0
1424,-0.1695,0.0582,9.8848,-0.0019,0.0073,0.0224,0
1444,0.1081,0.0497,9.6739,0.0187,-0.0339,0.0258,0
1464,0.0411,-0.0286,9.8424,-0.0449,-0.0045,0.0221,0
1484,0.1014,-0.1392,9.9864,0.0449,-0.0222,-0.0246,0
1505,0.0744,0.2456,10.0794,0.0484,-0.0419,-0.0111,0
1525,0.0066,0.0114,9.863,-0.0363,0.0103,-0.0187,0
1545,0.0223,0.0308,9.6856,0.0001,0.0224,-0.0285,0
1565,0.104,0.0292,9.7098,0.0097,-0.0051,0.0281,0
1585,0.027,-0.1643,9.9299,-0.0009,0.0014,-0.0219,0
1605,0.239,0.0555,9.744,-0.0097,0.033,0.013,0
1625,0.0807,0.1001,9.5699,0.0222,-0.0076,0.0453,0
1645,0.1586,-0.0877,9.6938,-0.003,0.0092,0.0047,0
1665,-0.1132,-0.3809,10.0743,-0.0684,0.05,-0.0004,0
1685,-0.1604,0.041,9.5368,0.014,0.0151,0.0277,0
1705,0.2397,-0.236,9.7458,0.0111,-0.0159,-0.0508,0
1725,-0.0019,0.1537,9.933,0.0038,0.0091,-0.0234,0
1745,-0.1088,-0.1534,9.8847,0.0212,-0.0105,-0.0092,0
1765,0.0762,-0.233,10.1359,-0.034,-0.0217,-0.0152,0
1785,0.0736,0.0974,9.8794,0.0236,-0.017,-0.0356,0
1806,0.0056,0.0306,9.8233,0.0215,0.0246,-0.0074,0
1826,0.0448,0.1845,9.9328,0.0027,-0.0195,-0.0303,0
1846,-0.148,0.1117,9.9563,-0.0471,-0.0042,0.0575,0
1866,0.1015,-0.0115,9.9178,0.0078,-0.0559,0.0046,0
1886,-0.0384,0.1295,10.069,-0.0464,-0.0456,-0.0139,0
1906,-0.0374,-0.1629,9.6571,0.0286,0.0187,0.0387,0
1926,-0.0007,0.1579,9.631,-0.0123,0.0342,-0.0246,0
1946,0.0733,0.1048,9.7077,0.0304,-0.0557,0.0308,0
1966,-0.0272,-0.1239,9.9531,-0.0027,0.0084,0.0206,0
1986,0.0017,0.0758,9.599,-0.0504,-0.0121,0.0485,0
2006,-0.0192,0.1358,10.1487,-0.0088,0.0146,-0.0354,0
2026,0.1299,0.0169,9.7886,0.0112,0.0032,-0.0008,0
2046,-0.2553,0.0198,9.6675,-0.006,-0.0247,-0.0378,0
2066,0.0882,-0.0149,9.3884,-0.0093,0.0088,0.0072,0
2086,0.2304,0.1749,9.7665,0.0168,0.0054,0.0475,0
2107,-0.0435,-0.3119,9.8553,-0.0122,-0.0151,0.0078,0
2127,-0.3091,-0.3728,9.5532,-0.0053,-0.0246,-0.0035,0
2147,0.051,0.1476,9.8585,-0.0062,-0.019,-0.0166,0
2167,-0.0732,0.071,9.5549,0.0255,0.0098,0.0067,0
2187,0.0315,0.0042,9.2535,-0.0251,-0.0086,-0.0203,0
2207,0.0181,0.0452,9.8212,-0.0428,-0.018,-0.0317,0
2227,-0.0274,0.1443,9.6245,-0.0407,0.0184,-0.0503,0
2247,-0.0706,-0.2067,9.8302,-0.0289,0.0047,0.063,0
2267,-0.0362,0.2925,9.7694,0.0314,0.0194,0.0332,0
2287,-0.1893,-0.2739,9.9589,0.0675,-0.0484,-0.015,0
2307,-0.0842,0.0213,10.0592,0.026,0.0111,-0.0279,0
2327,-0.0687,0.143,10.0012,0.0259,0.0209,-0.0005,0
2347,0.0899,0.1076,9.5947,-0.0119,-0.0238,-0.0399,0
2367,0.1988,-0.1875,9.8933,-0.0445,0.0335,-0.0063,0
2387,-0.2314,0.1089,9.6533,0.001,0.0253,0.0002,0
2408,0.0172,0.1939,9.8261,0.0521,-0.0228,-0.0016,0
2428,-0.272,-0.1263,10.1557,0.0535,-0.004,0.0475,0
2448,-0.1986,-0.2161,9.9387,-0.0047,0.0067,-0.0333,0
2468,0.2026,0.048,9.882,0.0538,-0.0067,0.0029,0
2488,0.0331,0.0727,9.6634,-0.0312,-0.0088,0.0281,0
2508,0.1003,-0.128,9.6743,0.0458,0.0076,-0.0416,0
2528,-0.0055,-0.4059,10.2825,0.0093,-0.0683,0.0044,0
2548,-0.1195,-0.7799,9.8472,-0.03,-0.0102,0.0025,0
2568,-0.18,-0.9124,10.1181,0.0863,-0.0219,-0.0149,0
2588,0.2252,-1.0585,10.1448,0.0532,-0.0499,0.0027,0
2608,-0.0363,-1.0069,10.1999,-0.0272,-0.0024,-0.0087,0
2628,-0.1667,-1.7104,10.1874,-0.0349,-0.0091,-0.006,0
2648,-0.0752,-1.7684,10.2363,0.0332,0.0961,-0.0356,0
2668,-0.0173,-1.9703,10.4621,0.0493,0.0236,0.0346,0
2688,0.2011,-2.2539,10.4882,0.0096,0.0074,0.0096,0
2709,-0.0563,-2.4501,10.1993,-0.0112,0.0131,-0.0319,0
2729,-0.1546,-2.6437,10.4007,-0.0121,-0.0068,0.015,0
2749,-0.038,-3.2518,10.5887,-0.0205,-0.0383,-0.0333,0
2769,0.1046,-3.1439,10.6689,-0.0295,0.0155,0.0108,0
2789,0.0202,-3.1882,10.8029,-0.0107,0.0245,-0.0242,0
2809,-0.017,-3.7347,10.2926,-0.0415,-0.0161,0.0342,0
2829,0.0876,-3.6305,10.4137,0.005,-0.0173,-0.0479,0
2849,0.0785,-3.9639,10.5742,-0.0302,0.0245,-0.0239,0
2869,-0.25,-3.9801,10.9036,-0.0583,0.0429,-0.0358,0
2889,-0.1882,-4.0226,10.7683,-0.0216,-0.003,-0.0373,0
2909,0.115,-4.4018,10.9194,-0.0114,-0.015,-0.0691,0
2929,-0.0488,-4.3971,10.9441,0.0294,0.0226,0.021,0
2949,-0.0065,-4.394,11.4121,-0.0178,-0.0135,0.0164,0
2969,0.0206,-4.8641,11.1392,-0.0159,0.037,-0.0086,0
2989,0.0774,-4.5513,11.1545,-0.0174,0.0013,0.0026,0
3010,-0.1628,-5.0257,10.8272,-0.0064,0.015,-0.0147,0
3030,-0.2983,-5.0031,11.0497,-0.0285,0.0721,0.0273,0
3050,-0.0484,-4.9786,10.7539,-0.0348,-0.015,0.0065,0
3070,-0.0924,-5.0671,10.8324,-0.0555,-0.0168,-0.0126,0
3090,0.2605,-5.2861,10.608,0.0432,0.0565,0.0137,0
3110,0.1967,-5.2975,11.0117,0.0153,-0.0342,0.0116,0
3130,-0.2745,-5.0823,10.8522,-0.0435,-0.016,0.0145,0
3150,-0.0248,-5.0775,10.6225,-0.011,-0.039,0.0108,0
3170,0.3791,-5.3507,11.3277,0.0041,0.0495,0.0052,0
3190,0.1012,-5.1483,11.3429,-0.0052,0.0524,0.0359,0
3210,-0.0583,-5.107,10.9435,0.0132,0.0422,0.0035,0
3230,0.1293,-5.1958,11.2152,-0.0126,0.0057,-0.0211,0
3250,0.2987,-4.8027,10.9823,0.0013,0.0091,-0.0459,0
3270,0.2322,-4.863,10.9774,0.0207,0.0143,0.0292,0
3290,-0.07,-5.0751,11.1024,-0.004,-0.0055,-0.0282,0
3311,-0.1787,-4.8979,10.7921,-0.0269,-0.0172,-0.0008,0
3331,-0.0201,-4.5905,10.6991,-0.0215,-0.0652,0.0267,0
3351,0.0685,-4.5811,10.6723,-0.0367,0.0337,-0.0007,0
3371,0.0906,-4.4706,10.8404,-0.0139,-0.0285,0.0116,0
3391,-0.0008,-4.5049,10.723,-0.0165,-0.0199,0.0006,0
3411,0.2199,-4.1686,10.855,0.0046,0.0309,0.0033,0
3431,0.0539,-4.1591,10.6633,0.0463,-0.0514,-0.0358,0
3451,-0.0085,-3.6809,10.8687,0.0196,-0.0118,0.0616,0
3471,0.1067,-3.7188,10.5316,0.0168,-0.0302,-0.0324,0
3491,0.2184,-3.4908,10.5548,0.0217,0.0051,-0.0169,0
3511,0.1548,-3.4466,10.7588,0.0058,0.01,0.0407,0
3531,-0.1924,-3.2456,10.4782,-0.0325,0.0423,-0.0087,0
3551,-0.0394,-2.8025,10.6304,-0.0046,-0.0119,-0.0242,0
3571,-0.2463,-2.6341,10.2057,0.0043,0.0104,-0.0527,0
3591,-0.113,-2.6395,10.5198,0.0846,0.0164,0.0564,0
3612,0.0752,-2.4481,10.6128,-0.0321,-0.0035,-0.0217,0
3632,-0.2917,-2.2086,10.4203,0.0064,-0.0483,-0.0095,0
3652,0.1131,-1.6533,10.2242,-0.0722,-0.002,-0.0257,0
3672,0.0875,-1.4903,10.224,-0.0277,0.0379,0.0096,0
3692,-0.2506,-1.4209,9.9393,-0.037,0.0186,0.0064,0
3712,0.0091,-0.8848,10.1625,0.0157,0.0278,0.0033,0
3732,-0.1272,-0.7792,10.0569,0.0044,0.0442,0.0426,0
3752,0.0277,-0.4795,9.8961,-0.0968,-0.0286,0.0213,0
3772,0.0874,-0.0536,10.0948,0.0016,0.0144,0.0098,0
3792,-0.1219,-0.1195,10.045,0.0507,-0.0101,0.0565,0
3812,0.0453,0.0247,9.7624,0.0565,0.0234,0.0056,0
3832,-0.1004,-0.1692,9.6425,-0.0165,-0.0165,0.0322,0
3852,0.1177,-0.0285,9.8783,-0.0439,-0.0209,-0.0448,0
3872,0.0697,-0.3971,9.7649,-0.0214,-0.0072,-0.0224,0
3892,0.2044,0.1508,9.8027,0.0,0.0306,-0.0164,0
3913,0.0152,-0.0831,9.5483,0.022,0.038,0.0299,0
3933,-0.0062,-0.1898,9.3748,0.0229,0.0114,-0.0233,0
3953,0.3337,-0.0118,9.9509,-0.0209,-0.0066,0.0289,0
3973,0.1041,-0.2378,9.8129,0.0152,-0.0083,0.0156,0
3993,0.0695,-0.1007,10.0731,0.0075,-0.0017,0.0332,0
4013,0.1783,0.1544,9.6985,0.0291,0.0396,-0.0195,0
4033,0.1195,-0.0264,9.4436,-0.0172,-0.0013,0.012,0
4053,0.0575,0.2563,9.7982,-0.0058,-0.0134,0.034,0
4073,-0.0717,-0.0334,9.9443,-0.0191,-0.0815,-0.0061,0
4093,0.065,-0.4894,9.8537,-0.0162,0.0201,0.0093,0
4113,0.1023,-0.0476,9.955,-0.0091,0.0025,0.0257,0
4133,0.0674,0.071,9.96,-0.0162,-0.042,0.0158,0
4153,-0.1553,-0.3195,9.9992,-0.0382,-0.0326,-0.0701,0
4173,0.0656,0.0347,9.5806,0.0022,-0.0067,-0.0105,0
4193,0.0908,0.0212,9.7771,-0.0229,-0.0224,0.0271,0
4214,0.1283,-0.2102,9.8696,0.009,-0.0142,-0.0578,0
4234,-0.2315,0.1704,9.8804,-0.0225,0.0065,0.0189,0
4254,-0.1198,-0.2436,9.6408,0.0207,-0.0392,-0.0319,0
4274,0.0038,0.1263,9.613,-0.0107,-0.0271,-0.0112,0
4294,0.1459,-0.2529,9.9281,0.0205,-0.038,0.0591,0
4314,-0.1086,-0.0417,9.9068,0.025,-0.0396,0.0095,0
4334,-0.1958,-0.0799,9.9175,-0.0286,-0.001,0.0047,0
4354,0.0282,0.2418,9.6623,-0.0424,0.0086,0.0456,0
4374,-0.1102,0.0971,9.7885,0.0044,-0.0196,-0.0231,0
4394,-0.0161,-0.1305,9.6844,-0.0051,-0.0083,-0.0382,0
4414,0.3912,-0.0441,9.3556,-0.0265,0.0051,-0.0072,0
4434,-0.1887,-0.0833,9.9708,0.0141,-0.0239,-0.0364,0
4454,0.2124,-0.0314,9.7342,-0.0083,0.0217,-0.0191,0
4474,0.1293,0.2131,9.5319,0.0053,-0.0319,-0.0169,0
4494,-0.0445,0.0485,9.4533,-0.0222,0.008,-0.0299,0
4515,0.0213,0.0369,10.0503,-0.005,0.0684,-0.0266,0
4535,-0.0292,-0.0761,9.519,-0.0068,-0.008,-0.0116,0
4555,-0.1344,0.0273,9.8865,0.0307,-0.0056,0.003,0
4575,0.1187,-0.0715,10.0005,-0.0176,-0.0047,-0.0262,0
4595,0.0718,-0.0304,10.2448,0.0038,-0.006,0.0542,0
4615,-0.1443,-0.1494,10.0884,0.0069,0.0288,0.0139,0
4635,0.0801,-0.1458,9.7455,-0.0093,0.0258,0.0221,0
4655,-0.008,0.3612,10.0556,0.0038,0.0437,0.0091,0
4675,0.0029,0.0889,9.4169,-0.0444,-0.015,-0.0098,0
4695,0.3263,0.1907,9.6245,0.0107,0.0235,0.0226,0
4715,-0.2796,0.0817,9.5896,-0.0542,-0.0194,-0.0386,0
4735,-0.0655,0.0958,9.5024,0.0291,-0.0178,-0.0061,0
4755,0.1213,-0.0367,9.748,-0.0021,-0.01,0.0232,0
4775,0.1034,-0.065,10.1601,-0.0024,0.0341,0.0117,0
4795,0.0408,-0.0898,10.2213,0.0071,0.0118,0.0221,0
4816,0.1158,0.0982,9.8133,-0.0018,-0.0198,-0.0165,0
4836,0.1115,-0.0667,9.8297,-0.0185,0.0235,0.0063,0
4856,0.0065,0.1263,9.8927,0.0517,0.0527,0.0144,0
4876,-0.0347,0.029,9.7542,-0.0325,-0.0234,-0.0104,0
4896,0.0412,-0.1055,9.9265,-0.0204,-0.0179,-0.049,0
4916,-0.156,0.0174,10.4031,0.0228,0.0109,-0.0057,0
4936,0.02,0.1255,9.5498,-0.0308,0.0117,0.0057,0
4956,0.0798,0.1689,9.8442,0.0151,-0.0125,-0.0001,0
4976,-0.1402,-0.0669,9.8706,0.0089,0.0075,0.0002,0
4996,0.0409,0.0311,9.7322,0.0168,0.0052,0.0092,0
5016,-0.3241,0.0954,10.2086,-0.0522,0.0348,0.0632,0
5036,-0.21,0.0039,9.7388,0.0498,-0.0046,0.0099,0
5056,-0.009,-0.1761,9.6151,0.0334,-0.0142,0.0121,0
5076,-0.2016,-0.0787,9.9385,-0.0154,-0.0443,0.0025,0
5096,-0.1997,-0.0566,9.9017,0.0361,0.0333,-0.012,0
5117,-0.3307,-0.192,9.6693,0.013,-0.0244,0.0432,0
5137,0.0284,-0.0082,9.5437,-0.0534,0.0202,0.017,0
5157,-0.1836,0.0089,9.7596,-0.0307,0.0437,-0.0389,0
5177,-0.068,0.0409,9.921,0.0137,0.0346,0.0201,0
5197,-0.1431,0.0786,10.0222,-0.0467,0.0447,-0.0363,0
5217,-0.0329,0.0853,9.7035,-0.0166,0.008,-0.0475,0
5237,0.1116,-0.1787,9.5826,0.0022,0.0809,-0.0336,0
5257,-0.1033,-0.2073,9.6292,0.0054,0.0139,0.0197,0
5277,0.2851,-0.083,9.9486,0.0283,-0.0074,-0.0121,0
5297,-0.2761,0.1202,9.8971,0.0599,-0.0369,0.0008,0
5317,-0.0466,-0.0953,10.29,0.0332,-0.0268,-0.021,0
5337,-0.1979,-0.0832,10.0506,0.01,-0.0428,-0.0265,0
5357,-0.0197,-0.0703,9.2607,0.0289,0.0297,0.0105,0
5377,0.1176,0.0735,9.4405,0.0328,0.0083,-0.0169,0
5397,0.1016,-0.2552,10.0457,-0.0131,0.0688,0.0177,0
5418,0.0149,-0.0422,9.7527,-0.054,0.0207,0.0217,0
5438,-0.0509,-0.0884,9.693,0.0159,-0.0127,-0.0506,0
5458,0.0433,0.223,9.8854,0.0228,-0.0197,-0.0378,0
5478,-0.2241,0.0677,9.9081,-0.0187,0.0315,0.0054,0
5498,-0.0195,0.1761,9.8065,0.0338,-0.0062,-0.0026,0
5518,0.0276,0.1962,10.0981,-0.0234,0.0244,-0.0092,0
5538,-0.1764,-0.3103,9.7078,-0.0144,0.0244,0.0074,0
5558,0.0652,0.0621,9.5549,-0.0235,0.0041,-0.0183,0
5578,-0.2186,0.0438,9.7216,0.041,0.0165,-0.0401,0
5598,0.1786,0.1193,9.814,0.0293,0.0171,-0.0056,0
5618,0.0562,-0.2811,9.3938,-0.0208,0.0245,-0.0037,0
5638,-0.2842,0.121,9.7021,0.0199,0.0017,-0.0384,0
5658,-0.0822,0.0954,10.1218,0.008,-0.0415,-0.0394,0
5678,0.1217,0.3263,9.8325,0.0132,0.0223,-0.0077,0
5698,0.1435,-0.1028,9.2915,0.0258,-0.0267,-0.0176,0
5719,-0.0223,-0.1616,9.8727,0.0545,-0.0352,0.012,0
5739,0.1545,-0.0644,9.7257,0.0086,-0.0173,0.0296,0
5759,0.0256,-0.0346,9.6195,0.0095,0.0404,-0.0098,0
5779,-0.1642,-0.428,9.6891,0.0172,0.0116,-0.0274,0
5799,-0.159,0.0423,9.7882,-0.0178,-0.0055,0.0251,0
5819,-0.2289,0.0074,9.9298,0.049,0.0195,0.0067,0
5839,0.0385,0.2147,9.5364,-0.0276,-0.0402,0.0013,0
5859,-0.1129,-0.1148,9.7718,0.0114,-0.0119,0.0228,0
5879,-0.0224,0.1152,9.6455,-0.0041,0.0076,0.0343,0
5899,0.15,-0.0177,9.6173,0.0242,0.0036,0.049,0
5919,-0.0109,0.2306,10.1202,0.0178,-0.0319,0.0068,0
5939,0.0552,0.0567,9.7756,0.0116,-0.0014,0.0531,0
5959,-0.144,0.0099,9.9752,0.036,0.0315,-0.0167,0
5979,0.2437,0.1584,9.7486,-0.0122,0.0291,-0.0031,0
6000,-0.1293,0.1469,9.8412,-0.0242,0.0307,0.027,0
