timestamp_ms,ax,ay,az,gx,gy,gz,label
0,-0.0053,-0.0638,9.6823,0.0497,-0.0001,0.052,0
20,-0.1673,-0.0401,10.0891,0.048,-0.0183,0.0199,0
40,0.0346,-0.2005,9.4032,0.0172,0.0422,-0.0038,0
60,0.0517,0.0702,9.6616,0.0084,-0.0484,-0.005,0
80,-0.0003,-0.1059,9.8723,-0.0498,-0.0017,0.0187,0
100,0.2372,0.1354,9.7775,-0.0309,-0.0032,-0.0226,0
120,-0.4091,0.1919,10.4179,0.0375,0.0262,0.0316,0
140,-0.1607,0.0096,9.6783,-0.021,0.0079,-0.0323,0
160,0.0282,0.205,10.1713,-0.0208,0.0067,0.0066,0
180,-0.0158,-0.1428,9.7765,0.0038,0.0214,-0.0328,0
200,0.1654,-0.0231,9.9321,-0.0563,0.0033,0.0009,0
220,0.1652,0.128,10.1301,0.013,0.006,-0.0422,0
240,-0.162,-0.0767,9.8928,0.0263,-0.0558,0.0042,0
260,0.2017,-0.0344,9.8673,0.0035,-0.0066,0.005,0
280,-0.0986,-0.207,9.7621,-0.0299,-0.0001,0.0051,0
301,0.0603,-0.188,9.6832,-0.0401,0.015,0.0808,0
321,0.0784,0.2434,9.7307,0.0094,0.017,-0.0061,0
341,0.15,0.0294,9.7161,-0.0107,-0.0188,-0.0179,0
361,0.0618,-0.0473,9.6794,-0.0501,0.0159,0.0427,0
381,0.0363,0.1835,9.8671,0.0025,0.0223,0.029,0
401,0.1283,-0.1103,10.0723,0.0122,0.023,-0.0213,0
421,-0.0776,0.0193,9.8451,0.0254,0.0084,0.0421,0
441,-0.0254,-0.0749,9.9251,0.0249,0.0063,0.0225,0
461,0.2609,0.1435,9.459,-0.0036,-0.0067,0.0009,0
481,-0.1777,-0.0077,9.6233,-0.0068,-0.0064,-0.052,0
501,-0.0754,0.0927,9.7985,0.0283,-0.0386,0.0503,0
521,0.0571,0.073,10.2268,0.0209,-0.0186,0.0108,0
541,-0.1558,-0.3447,9.8702,-0.001,0.0224,-0.0415,0
561,-0.2753,-0.0464,9.7842,0.0693,-0.0073,0.0141,0
581,-0.0441,-0.0197,9.6943,0.0057,-0.0213,0.0294,0
602,0.0038,-0.1021,9.9632,0.0007,-0.007,-0.0008,0
622,-0.0749,0.028,10.0616,-0.0221,0.0354,-0.0506,0
642,0.1445,0.296,9.6389,-0.0443,-0.0231,-0.0562,0
662,0.42,0.1918,9.8504,0.0077,0.0009,-0.0151,0
682,0.1356,-0.0386,9.8997,0.0207,0.0557,-0.0032,0
702,-0.0509,0.0712,10.0765,0.0049,0.022,-0.0086,0
722,0.0465,0.0352,9.9115,0.0365,-0.0057,-0.0079,0
742,0.0231,-0.0258,10.1172,-0.0084,0.0572,-0.0219,0
762,0.1321,0.048,9.8598,-0.0059,-0.0015,-0.0273,0
782,-0.0538,0.0138,10.0033,-0.0067,0.0557,-0.0295,0
802,0.1106,0.261,9.947,0.002,-0.0586,-0.036,0
822,-0.081,-0.0628,9.6566,0.0391,-0.0042,-0.0378,0
842,0.0346,0.2931,9.5263,0.0061,-0.0154,-0.0028,0
862,-0.0031,0.2379,9.9901,-0.0755,0.0091,-0.0114,0
882,-0.0136,0.0099,9.9063,-0.0471,0.0155,0.0009,0
903,-0.036,0.0242,9.4964,-0.0245,0.0649,0.0144,0
923,0.0128,-0.2335,9.8576,0.0232,-0.0447,-0.0523,0
943,-0.2554,0.2466,9.8088,0.0118,0.0241,-0.0235,0
963,0.043,0.2476,9.7656,-0.0233,-0.0045,0.0175,0
983,0.1316,-0.0259,9.7677,0.0201,-0.0035,-0.0173,0
1003,-0.0297,-0.3722,9.6846,0.0341,0.007,0.0254,0
1023,-0.0798,0.0297,10.0433,0.0497,0.019,-0.0379,0
1043,-0.3367,-0.2817,9.8808,0.0014,-0.0091,-0.0784,0
1063,-0.1504,-0.0154,9.8671,-0.0073,-0.0313,-0.0001,0
1083,0.0974,-0.1172,10.0173,0.01,0.0072,-0.0143,0
1103,-0.0768,-0.0804,9.8392,-0.0158,-0.0128,0.0003,0
1123,0.3012,-0.2727,9.5381,-0.0066,0.0504,0.0068,0
1143,-0.0932,0.196,10.0534,-0.0074,0.0267,0.0081,0
1163,0.0825,0.3998,9.7142,0.0106,-0.0214,0.0153,0
1183,-0.1161,-0.1607,10.0703,-0.0352,-0.0142,0.0296,0
1204,-0.0257,-0.0369,9.354,-0.0072,-0.0252,-0.0051,0
1224,0.0966,0.0428,9.6394,0.0319,0.0031,-0.0844,0
1244,0.1587,-0.0234,9.8147,0.0413,0.0043,-0.0028,0
1264,0.0306,-0.0992,10.0207,0.0128,0.0576,0.0061,0
1284,-0.2765,0.2915,9.9541,0.0448,0.0258,0.0316,0
1304,-0.0991,-0.0186,9.8949,-0.095,0.0369,-0.0423,0
1324,0.0253,-0.1841,9.7702,-0.0184,0.0048,0.026,0
1344,-0.1028,0.0834,10.0206,-0.0125,0.0263,-0.0085,0
1364,0.0221,0.2303,9.6243,0.0542,0.05,-0.0345,0
1384,-0.4751,0.1064,9.6617,0.0092,0.0472,-0.0016,0
1404,0.1045,-0.0135,9.9908,-0.0034,0.0573,-0.0183,0
1424,-0.0301,0.0164,9.9518,-0.0491,-0.0028,-0.0226,0
1444,0.0811,-0.0437,9.7315,0.0208,-0.0504,-0.018,0
1464,0.0841,0.0208,10.1085,-0.0143,0.0004,-0.0127,0
1484,0.0128,-0.0679,9.9956,-0.0086,0.0146,0.0177,0
1505,0.1424,-0.0908,9.8379,0.0271,0.0049,0.0459,0
1525,-0.2116,0.0095,10.2776,-0.0203,0.0265,0.0379,0
1545,-0.022,-0.0619,9.8468,-0.0001,0.0402,-0.0011,0
1565,0.0911,0.358,9.9782,0.001,0.0045,0.0179,0
1585,0.0974,-0.0264,9.7874,0.04,-0.0135,-0.0241,0
1605,0.0243,0.2483,9.3656,0.0451,-0.011,0.0086,0
1625,0.2353,-0.0624,10.019,-0.0188,-0.0014,0.0079,0
1645,-0.0433,0.1989,10.4043,0.0228,0.0117,0.0445,0
1665,-0.1734,0.0557,9.9177,-0.0352,0.0142,-0.0512,0
1685,0.053,-0.108,9.5952,0.0056,-0.0578,-0.029,0
1705,0.0281,-0.0965,9.5581,0.0157,0.0043,-0.0693,0
1725,0.2426,0.1674,9.5347,0.0478,-0.0104,0.0091,0
1745,0.0563,-0.029,10.1344,-0.025,0.0406,0.0003,0
1765,0.0455,-0.0639,9.7626,0.0131,0.0276,0.0284,0
1785,0.1946,-0.0881,10.0547,-0.0161,-0.0631,-0.0347,0
1806,0.3725,0.015,10.0286,-0.0214,0.0018,0.0028,0
1826,-0.1189,-0.1106,9.5195,0.0322,0.0022,-0.0181,0
1846,-0.24,-0.0445,9.6224,0.0079,-0.0175,-0.0247,0
1866,0.0949,0.1851,9.8995,-0.0062,-0.0315,-0.0129,0
1886,0.0881,-0.0132,9.9663,-0.048,-0.0042,-0.0042,0
1906,0.049,-0.0969,9.9489,0.0114,0.0072,0.0351,0
1926,0.2582,0.0862,10.1289,0.0143,0.0048,-0.0334,0
1946,0.1324,0.0344,10.0085,-0.0197,-0.0241,0.0313,0
1966,-0.0843,0.1877,9.7928,-0.0027,0.0032,0.0119,0
1986,0.1503,0.0957,9.9437,-0.0181,0.0089,-0.0094,0
2006,-0.1937,0.1492,9.6273,-0.0109,-0.0081,0.003,0
2026,0.1105,-0.0305,10.0362,0.0127,-0.0229,0.0498,0
2046,0.037,0.0745,9.542,0.0514,-0.0351,0.0544,0
2066,0.0983,-0.0688,9.6482,0.0432,-0.0498,-0.026,0
2086,-0.2511,0.1598,9.7312,-0.0255,0.0439,0.0082,0
2107,0.1614,0.0929,9.7822,-0.0239,0.0207,-0.0475,0
2127,-0.1753,0.2008,10.0807,-0.0483,-0.0025,0.0041,0
2147,-0.4157,-0.2008,9.6892,0.0343,0.0017,-0.0054,0
2167,0.1816,0.4105,9.9066,0.0006,0.018,-0.0086,0
2187,-0.1105,-0.1539,9.5917,0.01,-0.0405,-0.026,0
2207,0.0021,0.1686,9.6757,-0.0014,-0.007,0.071,0
2227,0.0854,-0.0374,9.7985,0.0144,0.0062,0.0283,0
2247,0.0889,0.0258,9.7966,0.0858,0.0097,-0.0012,0
2267,-0.0031,-0.1153,9.8389,-0.0374,-0.0082,-0.0228,0
2287,-0.0194,-0.1012,9.993,0.001,0.0493,0.003,0
2307,-0.1142,-0.2706,9.8285,-0.0154,-0.0287,0.0144,0
2327,0.0235,0.1219,10.1244,0.0389,0.0181,0.0501,0
2347,-0.1215,-0.1734,10.0911,0.0072,-0.0369,0.0386,0
2367,-0.0479,0.126,9.4512,-0.0168,-0.0332,0.0065,0
2387,0.1401,0.1881,9.8373,0.0178,0.0309,-0.0572,0
2408,0.0301,-0.0672,10.0592,-0.053,0.0419,0.0165,0
2428,-0.1767,0.0257,9.9333,0.0008,0.0356,-0.0578,0
2448,-0.005,-0.202,9.9237,-0.0308,0.0363,-0.0367,0
2468,0.0051,0.1491,9.6119,-0.0113,-0.0572,0.0248,0
2488,0.065,-0.0085,9.5021,-0.0262,-0.0037,0.0051,0
2508,-0.157,-0.2927,9.8996,-0.0072,-0.0036,0.0396,0
2528,-0.0322,-0.1468,10.2015,0.0073,0.0006,0.0125,0
2548,0.2509,-0.5212,9.7072,-0.0232,0.0685,-0.0169,0
2568,0.2053,-0.666,9.8088,0.0286,0.0264,0.0265,0
2588,-0.0579,-1.1588,10.1763,0.0367,-0.0173,-0.0004,0
2608,-0.1652,-1.6645,9.8292,0.0522,0.026,-0.0588,0
2628,0.265,-1.7888,10.3804,0.0127,0.0403,-0.0169,0
2648,-0.0493,-1.6694,10.0728,-0.0149,0.0168,-0.0175,0
2668,0.0471,-2.0277,10.0482,0.0167,0.0023,-0.0293,0
2688,0.0511,-2.2556,10.5758,-0.0371,0.0097,-0.0057,0
2709,-0.0991,-2.3916,10.1443,0.0064,0.014,-0.0019,0
2729,-0.0691,-2.7987,10.1902,-0.0124,-0.0431,0.0359,0
2749,0.1563,-3.0424,10.5987,-0.0125,0.0645,0.0844,0
2769,0.1517,-3.2258,10.2248,0.0012,-0.035,-0.0151,0
2789,-0.1172,-3.4171,10.716,-0.0392,-0.013,-0.017,0
2809,0.3091,-3.7058,10.8727,-0.0088,0.0106,-0.015,0
2829,-0.2035,-3.7161,10.6519,0.0293,0.0318,-0.0139,0
2849,0.0307,-3.997,10.5124,-0.0129,0.0339,0.016,0
2869,0.0384,-3.9643,10.7121,0.026,0.0048,0.0327,0
2889,0.0282,-4.0136,10.9822,0.0394,-0.0042,0.0016,0
2909,-0.1239,-4.2989,10.3658,0.0131,0.0009,-0.0419,0
2929,0.066,-4.4028,10.8488,-0.0595,0.0362,0.0273,0
2949,-0.0145,-4.7147,10.4442,0.0429,0.0471,-0.0299,0
2969,-0.103,-4.641,10.9875,-0.0099,-0.017,0.0058,0
2989,-0.0144,-4.8322,10.771,0.0448,-0.0086,0.0231,0
3010,0.3173,-4.9622,10.9749,-0.003,0.0208,0.0008,0
3030,0.243,-5.0442,11.1303,-0.0306,-0.0026,-0.0073,0
3050,-0.0328,-5.2634,11.2732,0.0124,0.0765,-0.0388,0
3070,-0.362,-5.0993,11.008,-0.0108,0.0054,0.0178,0
3090,0.063,-5.4837,11.2849,0.0066,-0.0637,-0.0057,0
3110,-0.1038,-5.1399,10.7049,-0.0058,-0.0314,0.0407,0
3130,0.0824,-5.1326,11.0107,0.0308,-0.0336,0.018,0
3150,0.1269,-5.1507,10.7634,0.0194,0.0363,-0.0279,0
3170,0.0474,-5.0595,10.7994,0.0276,0.0141,0.0006,0
3190,0.1984,-5.1766,11.4562,0.0166,0.0361,-0.0097,0
3210,-0.0106,-5.1676,11.0768,-0.0117,-0.0006,0.0399,0
3230,-0.1614,-5.1854,10.9365,-0.0115,-0.0086,-0.018,0
3250,0.0235,-5.0729,11.1581,0.0566,0.0156,-0.0452,0
3270,-0.0958,-5.1506,11.299,0.0107,0.0016,-0.0613,0
3290,-0.0286,-4.7229,10.929,-0.0004,-0.0096,0.0148,0
3311,0.024,-4.918,10.9508,-0.0209,0.0536,-0.0444,0
3331,-0.0885,-4.7641,10.6107,0.007,0.0249,0.0197,0
3351,0.0274,-4.6355,11.0876,-0.0392,-0.0224,0.0126,0
3371,0.0782,-4.394,10.9003,0.0031,-0.0333,-0.0041,0
3391,0.0336,-4.2452,10.2215,0.0361,0.0087,0.0014,0
3411,0.0788,-4.2231,10.9444,0.0004,0.0107,-0.0347,0
3431,-0.0132,-4.147,10.8234,-0.0027,0.0146,0.0162,0
3451,0.1283,-3.8664,10.8097,0.0007,0.0182,0.0013,0
3471,0.315,-3.7182,10.9102,0.0302,-0.0209,-0.0407,0
3491,0.0024,-3.7049,10.8791,-0.04,-0.0117,-0.0314,0
3511,-0.1613,-3.3523,10.364,0.0406,-0.0104,0.0153,0
3531,0.2557,-3.2442,10.5971,0.0551,-0.0217,0.0311,0
3551,-0.2453,-2.7673,10.3226,0.0212,0.0229,0.0134,0
3571,-0.1942,-2.7409,10.5027,0.0279,0.0227,-0.0115,0
3591,-0.1871,-2.4002,10.1703,-0.0007,-0.0047,-0.0189,0
3612,-0.08,-2.3536,10.1013,-0.001,0.0632,0.0398,0
3632,0.1092,-1.9102,10.286,-0.0476,0.0033,-0.0592,0
3652,0.0098,-1.7264,10.1631,-0.0249,-0.0145,0.0445,0
3672,0.0588,-1.7424,10.2123,0.0044,0.0387,-0.0099,0
3692,0.0874,-1.4524,10.3649,0.0043,0.0364,0.0372,0
3712,-0.009,-1.1404,10.2097,0.005,-0.028,-0.0046,0
3732,0.0284,-0.7378,9.9773,-0.01,-0.0431,-0.0163,0
3752,0.2707,-0.7223,10.1618,0.0383,0.0213,0.0213,0
3772,0.0155,-0.3095,9.5896,-0.002,0.022,0.0223,0
3792,-0.0866,0.0051,9.8026,0.014,0.0185,-0.0173,0
3812,-0.2376,-0.0739,9.8135,0.017,0.0304,-0.0242,0
3832,0.1277,0.0775,9.9012,-0.0003,-0.0147,-0.0155,0
3852,-0.177,-0.3603,10.1469,0.0082,-0.0632,-0.0443,0
3872,0.1591,-0.275,9.8725,-0.0175,0.0124,0.0195,0
3892,0.0687,-0.0311,9.8233,0.0157,0.0499,0.0182,0
3913,-0.2474,0.1213,9.7788,-0.0091,0.0042,-0.0154,0
3933,-0.1589,-0.1334,9.8629,-0.0031,-0.0167,0.0222,0
3953,-0.1153,-0.1754,9.6967,0.0398,0.01,-0.0013,0
3973,-0.0364,-0.1174,9.5615,-0.0537,-0.0517,-0.0182,0
3993,0.1102,0.1542,10.2497,-0.0019,-0.0042,0.0195,0
4013,-0.2768,0.0781,9.439,-0.0331,-0.0115,0.0204,0
4033,-0.08,-0.052,9.531,0.0272,0.0343,-0.0007,0
4053,0.0209,-0.0852,9.865,0.0231,0.0311,0.0467,0
4073,-0.0458,0.1299,9.874,-0.0242,-0.0121,-0.0216,0
4093,-0.1666,-0.1617,9.8,0.0071,-0.0466,0.0413,0
4113,0.0047,0.3428,9.7989,-0.0147,0.015,0.0469,0
4133,0.0022,0.0263,9.9748,0.0268,0.0043,-0.0288,0
4153,-0.0484,-0.2946,9.4366,-0.0142,-0.0445,0.0134,0
4173,-0.0073,0.0423,9.6835,0.0028,0.0223,0.0375,0
4193,0.1771,-0.0719,9.8252,-0.0055,-0.016,0.04,0
4214,-0.0348,-0.0301,9.9195,-0.0092,0.0191,0.0387,0
4234,-0.3061,0.0904,9.9731,-0.0088,-0.0209,-0.0274,0
4254,0.1289,0.0133,10.1014,0.029,0.0396,-0.0565,0
4274,0.1698,-0.0981,9.6219,-0.0159,-0.0167,0.0061,0
4294,-0.1047,0.1837,9.8639,-0.0457,0.0623,0.0184,0
4314,-0.0431,-0.3436,9.7165,0.0365,0.0066,0.0364,0
4334,-0.074,0.0967,9.5129,-0.0404,-0.0232,0.0342,0
4354,0.0334,0.2275,9.3791,-0.0131,0.0156,-0.0032,0
4374,0.178,-0.0036,9.6333,-0.0223,0.0061,0.0354,0
4394,0.0015,-0.0615,9.7432,0.0058,-0.0092,-0.0293,0
4414,0.0418,-0.0689,9.9865,0.0119,-0.0016,-0.0124,0
4434,0.0257,-0.0738,9.7515,0.0195,0.0227,-0.0636,0
4454,-0.245,-0.0135,9.7656,0.0232,0.077,-0.0249,0
4474,0.1281,0.0057,9.5279,-0.0407,-0.0068,-0.0364,0
4494,0.1147,0.3125,9.8442,0.0266,0.0082,0.0175,0
4515,0.0472,0.0606,9.8892,-0.0293,0.0645,0.0407,0
4535,-0.214,0.1502,9.408,0.0567,-0.0094,0.006,0
4555,-0.0583,0.145,10.3462,-0.0091,-0.0523,0.0405,0
4575,-0.2432,0.047,9.5343,0.0319,0.027,0.0315,0
4595,0.1176,0.0258,9.4896,-0.0278,0.0169,-0.0156,0
4615,-0.0329,-0.0091,9.9854,0.0153,-0.018,0.0155,0
4635,-0.0702,-0.0816,9.7132,-0.0194,-0.0313,0.0148,0
4655,0.0384,0.012,9.5647,-0.0199,-0.0217,-0.0103,0
4675,-0.0744,-0.173,9.748,0.0059,0.0362,0.0306,0
4695,-0.0624,-0.184,9.9907,0.0672,-0.037,-0.0165,0
4715,0.0695,-0.194,9.4189,-0.0185,0.0327,-0.0127,0
4735,-0.1537,0.1757,9.6969,0.0449,-0.0326,0.0018,0
4755,0.1576,0.0508,9.5767,-0.0117,0.0677,0.0234,0
4775,0.3276,0.2517,9.8161,0.0221,0.0132,0.0037,0
4795,0.0455,-0.0696,9.4987,0.0118,-0.0503,-0.0146,0
4816,-0.2439,0.1439,9.8256,-0.005,-0.0051,-0.0281,0
4836,-0.0502,-0.1373,9.9485,-0.0107,-0.0068,0.0382,0
4856,0.0913,-0.2418,9.8145,0.0312,-0.0117,-0.0316,0
4876,0.1685,0.1287,9.818,-0.0288,-0.0334,-0.0198,0
4896,0.1077,0.4172,10.2311,-0.0723,-0.0243,0.0178,0
4916,0.0886,-0.0268,9.4752,0.0228,-0.0504,0.0625,0
4936,0.2965,-0.0107,10.0851,-0.0132,-0.0755,0.002,0
4956,-0.0518,-0.2362,9.8664,-0.0415,0.0454,0.0105,0
4976,0.2815,-0.0352,9.5972,0.0016,0.0049,-0.038,0
4996,-0.1869,-0.1975,10.0234,0.053,0.0343,0.0662,0
5016,-0.0656,-0.1187,9.9491,-0.0377,-0.0117,-0.0081,0
5036,-0.0878,-0.2274,10.103,-0.0283,-0.0198,0.0124,0
5056,0.2632,-0.2245,10.0034,-0.0101,0.0031,-0.035,0
5076,-0.0944,0.0969,9.9469,-0.0133,-0.049,-0.0418,0
5096,0.0384,-0.329,9.6326,-0.0081,-0.04,-0.0322,0
5117,-0.2192,-0.1183,9.5825,0.0535,-0.049,-0.0072,0
5137,-0.0045,-0.1356,9.8445,-0.09,0.0301,-0.0461,0
5157,0.1258,0.015,10.0228,0.0374,-0.0031,-0.0731,0
5177,-0.3233,0.0519,9.8259,-0.0122,-0.0252,0.0227,0
5197,0.1313,0.0729,10.0225,0.0196,0.0171,0.0065,0
5217,-0.2785,0.0811,9.9636,0.0117,0.051,-0.0234,0
5237,-0.2468,0.2283,9.5718,-0.018,0.0591,0.0026,0
5257,-0.0909,-0.2955,9.634,0.0381,0.007,-0.0253,0
5277,-0.1563,-0.057,10.071,-0.0132,-0.0229,-0.0018,0
5297,0.1983,0.0468,9.8834,-0.067,0.033,-0.0358,0
5317,-0.0943,-0.1451,9.9123,-0.0085,-0.0127,-0.0068,0
5337,-0.1096,-0.1485,9.8329,-0.0071,-0.0409,-0.0081,0
5357,-0.1102,-0.1583,9.7859,-0.0297,0.0314,-0.0127,0
5377,0.0736,-0.0082,9.7199,-0.0012,0.0087,-0.0131,0
5397,0.2178,-0.1098,9.5909,0.0168,-0.0413,0.0121,0
5418,-0.1367,0.2704,9.9339,0.0243,0.0102,-0.0265,0
5438,0.0317,0.1594,9.8178,-0.0045,-0.0236,0.0174,0
5458,0.0218,-0.1158,10.0693,-0.0088,-0.0026,0.0218,0
5478,-0.0796,-0.0288,9.4925,-0.0131,0.0003,0.04,0
5498,0.0563,0.157,9.5731,-0.0309,-0.0756,0.0329,0
5518,0.0612,-0.0905,9.8194,0.0428,0.0513,-0.0191,0
5538,0.2406,-0.2904,9.5973,0.0426,-0.0502,0.032,0
5558,-0.0528,-0.1082,9.6699,-0.0117,-0.0876,0.0324,0
5578,0.074,0.1462,9.9045,0.0601,-0.0074,0.0216,0
5598,0.1062,-0.114,9.8687,0.0373,-0.0552,0.0246,0
5618,-0.2738,-0.0128,9.3809,-0.0458,0.0477,0.0538,0
5638,-0.2252,0.0223,9.684,0.0087,0.0332,0.033,0
5658,0.0691,-0.1402,9.9293,0.0029,-0.0036,0.0097,0
5678,-0.0646,0.1048,9.7879,-0.0136,0.0181,0.0724,0
5698,-0.1244,0.0998,9.9259,-0.0034,0.0287,0.0148,0
5719,-0.1066,-0.1236,9.8282,-0.0196,-0.0323,0.0162,0
5739,0.1176,0.3302,9.9147,0.0807,-0.0134,0.0255,0
5759,-0.0665,0.3567,9.7928,0.0131,0.0218,0.0015,0
5779,0.1221,0.0959,9.6342,0.0295,-0.0223,0.0425,0
5799,0.029,-0.1689,10.1398,0.015,0.0036,0.0227,0
5819,-0.0583,0.0445,9.5432,-0.0109,-0.0019,-0.014,0
5839,-0.0748,-0.099,10.1879,-0.0295,-0.0241,-0.0296,0
5859,-0.0881,0.2501,9.576,-0.0259,0.009,0.0023,0
5879,-0.3373,0.0128,10.0064,0.0199,0.0166,0.0259,0
5899,-0.0698,0.1017,10.2778,0.0048,0.0373,0.0661,0
5919,-0.2956,0.08,9.9232,0.0057,-0.0074,0.031,0
5939,0.1827,-0.1645,9.8306,-0.0332,-0.0234,0.0106,0
5959,-0.0447,-0.224,9.6542,-0.0111,0.0175,0.0499,0
5979,-0.0846,-0.0575,9.7581,-0.0382,0.0299,0.0167,0
6000,-0.0756,-0.13,9.6212,0.0207,0.0815,-0.0006,0
