timestamp_ms,ax,ay,az,gx,gy,gz,label
0,0.1307,-0.0279,9.6206,-0.0182,-0.0323,-0.0199,0
20,0.1444,-0.1957,9.5865,0.0071,-0.0251,-0.0129,0
40,0.137,-0.0033,9.7918,0.0489,0.1023,0.0728,0
60,0.026,0.1523,10.0492,0.0087,-0.0117,0.045,0
80,0.0516,0.2487,9.5018,0.0164,-0.0445,0.0443,0
100,0.2879,0.0349,9.5585,0.0307,0.074,-0.0052,0
120,-0.1322,-0.1086,10.1158,-0.0011,-0.0623,0.0143,0
140,-0.0158,0.0148,9.8069,-0.044,0.0755,0.0078,0
160,-0.2211,0.1331,9.7199,0.0424,-0.0036,0.0194,0
180,0.0028,0.1974,9.9972,0.0056,-0.0216,-0.0316,0
200,-0.0757,0.0092,9.8131,-0.0033,-0.0133,-0.0274,0
220,-0.2963,-0.0973,10.0953,-0.0702,-0.0111,0.0486,0
240,0.0801,-0.0041,9.7743,0.0433,0.0271,-0.0423,0
260,0.0622,-0.1074,9.8684,0.0038,0.0049,0.025,0
280,-0.267,-0.1165,9.6927,0.0423,-0.0212,0.0127,0
301,-0.0492,0.0186,9.7532,0.0592,0.0491,-0.0619,0
321,-0.3092,0.0484,9.5715,-0.0329,0.0412,-0.0175,0
341,0.2429,0.2276,10.2407,0.0546,0.0089,-0.036,0
361,0.1525,-0.0333,9.7373,0.0043,-0.0073,-0.0391,0
381,-0.1766,0.0451,9.9348,-0.0378,-0.0566,-0.0162,0
401,0.0573,0.0176,9.8508,-0.0067,0.0227,0.0098,0
421,0.0131,-0.0049,9.8697,0.0092,0.0099,0.0333,0
441,-0.2186,-0.0847,9.738,0.0087,0.026,-0.0299,0
461,-0.1969,0.0507,9.944,-0.0265,0.0279,-0.0067,0
481,-0.0264,0.2331,9.5294,0.0218,-0.0065,0.012,0
501,-0.1426,-0.0213,9.8144,-0.0221,-0.0138,0.0621,0
521,0.2425,0.0761,9.7899,-0.0144,-0.0243,-0.001,0
541,0.1577,-0.0687,9.8506,-0.0272,-0.003,0.0217,0
561,0.3261,0.2004,9.9181,-0.0611,0.0024,0.0318,0
581,0.0237,-0.0998,10.2989,0.0295,0.0352,0.0251,0
602,0.0211,-0.0625,9.7988,0.0077,0.0462,0.0003,0
622,0.0121,0.1207,10.1055,-0.0093,-0.0349,0.0507,0
642,-0.0323,0.0418,10.1919,-0.0328,-0.007,0.0152,0
662,-0.0003,0.1515,9.5376,-0.0056,-0.0203,-0.0054,0
682,0.0096,0.0457,9.7964,-0.0151,-0.0096,0.0133,0
702,-0.0696,-0.0705,9.782,0.0522,0.0192,0.014,0
722,-0.1163,0.0142,9.9906,0.005,0.0295,0.0004,0
742,-0.1891,0.2039,9.709,0.0119,0.0148,0.0456,0
762,-0.2848,0.1192,9.8796,-0.0183,0.0441,-0.0141,0
782,-0.0157,-0.2612,9.9174,0.0511,0.0267,0.0171,0
802,0.0714,-0.2935,10.0653,-0.0072,-0.0415,0.0485,0
822,-0.0254,0.0898,9.5997,-0.0005,0.0022,-0.0382,0
842,-0.1523,0.0387,10.0796,-0.055,-0.04,0.0003,0
862,-0.0737,0.0561,10.0157,-0.0407,-0.0133,-0.0022,0
882,0.1743,-0.0544,9.9112,-0.0407,0.0031,0.014,0
903,0.1398,0.3163,9.8715,0.0472,0.0262,0.0197,0
923,-0.073,-0.0365,10.2294,0.0007,-0.0252,-0.0058,0
943,0.1546,-0.2298,9.6211,-0.0119,0.0199,0.0255,0
963,-0.146,-0.1241,9.776,-0.0386,-0.0429,-0.0016,0
983,0.1929,-0.1064,9.7656,-0.0073,-0.0113,0.0168,0
1003,-0.1695,-0.2254,9.5992,0.0169,-0.019,-0.0486,0
1023,-0.2386,-0.1331,9.6327,-0.0229,0.0524,-0.0076,0
1043,-0.0275,0.0798,9.5151,-0.0105,0.0161,0.013,0
1063,-0.0418,0.0373,10.0812,-0.0061,-0.0114,0.0039,0
1083,0.0322,-0.1906,9.9341,-0.0269,-0.0208,0.011,0
1103,-0.0601,0.23,9.6545,0.0062,0.0146,-0.0433,0
1123,-0.2141,-0.0427,9.6504,-0.0005,-0.0374,0.0229,0
1143,0.1582,-0.01,9.634,0.0137,0.0237,0.0239,0
1163,-0.0062,0.0269,10.2379,0.0045,0.0153,-0.0078,0
1183,0.0466,0.0776,9.5655,0.0115,-0.0536,-0.0366,0
1204,0.0912,-0.0925,9.6958,-0.0342,-0.0029,0.0705,0
1224,0.0313,0.1073,9.9086,0.039,0.0273,0.0316,0
1244,0.0392,-0.0667,9.6256,-0.003,0.0412,0.0091,0
1264,0.0277,-0.0992,9.5702,-0.077,-0.0483,-0.0119,0
1284,-0.0725,-0.2357,10.3125,-0.0402,-0.0363,-0.0329,0
1304,0.0238,-0.4059,9.9078,0.0161,-0.0294,-0.0314,0
1324,-0.0255,-0.1148,10.1708,0.0114,-0.0179,0.0239,0
1344,-0.0666,-0.245,9.929,0.0487,0.0131,0.0668,0
1364,-0.1431,-0.0201,9.5386,0.0485,-0.0628,-0.0013,0
1384,-0.0978,0.2345,9.6716,-0.0027,0.0145,0.0252,0
1404,0.1026,0.0816,9.7024,0.024,0.014,0.0103,0
1424,-0.2357,0.0885,9.8074,0.0217,-0.008,-0.0093,0
1444,-0.1373,-0.0203,9.7471,-0.0036,-0.0025,0.008,0
1464,0.0684,0.0432,9.7886,-0.0732,0.0103,0.0195,0
1484,-0.0343,0.3899,9.4995,-0.0196,0.0125,0.0303,0
1505,-0.0478,-0.038,9.8135,-0.0198,0.0161,0.0138,0
1525,-0.0072,0.1084,9.7398,0.0655,-0.0315,-0.0084,0
1545,0.1219,-0.1188,9.9816,0.047,-0.0125,0.0308,0
1565,-0.1066,-0.0309,10.1911,0.0026,0.0213,0.0274,0
1585,0.0952,-0.1464,9.8686,0.0234,0.001,0.0356,0
1605,0.0172,-0.0885,9.94,-0.0003,-0.0107,0.0077,0
1625,-0.0737,0.0697,9.9225,-0.0247,-0.0157,-0.0087,0
1645,0.0615,-0.1068,9.9209,-0.019,0.0079,0.0297,0
1665,0.0575,-0.0602,9.7486,-0.0131,-0.0282,-0.0315,0
1685,-0.0142,0.0171,9.7118,-0.0239,0.003,-0.0679,0
1705,-0.331,0.2402,9.818,0.0246,-0.0702,0.002,0
1725,-0.2188,-0.09,10.1662,-0.0393,0.0207,-0.034,0
1745,0.1293,0.0484,10.1611,0.0185,0.0078,-0.0432,0
1765,-0.0443,-0.0819,10.077,-0.0179,0.0153,0.0285,0
1785,0.2822,-0.1808,9.7371,0.0238,0.0107,-0.0143,0
1806,-0.147,-0.1407,9.8567,0.0526,0.0019,-0.0389,0
1826,-0.1281,-0.0857,9.7949,-0.0029,0.0381,0.0051,0
1846,-0.0456,-0.031,9.681,0.0179,-0.0075,-0.0169,0
1866,-0.0715,-0.2478,10.1704,-0.0275,0.0241,-0.0524,0
1886,-0.006,0.0209,9.877,0.0154,-0.0017,0.0075,0
1906,-0.0586,0.1322,9.9319,-0.0481,-0.0033,0.0028,0
1926,0.209,0.1772,9.3982,-0.013,0.027,-0.0135,0
1946,-0.1512,0.1159,9.812,-0.0024,-0.0158,0.004,0
1966,0.0378,0.038,9.8431,0.008,0.079,0.0087,0
1986,-0.1742,0.3084,10.0313,0.0312,0.0096,-0.0677,0
2006,0.0784,-0.0855,9.7873,-0.0188,0.0141,-0.0288,0
2026,-0.2824,-0.1173,9.5988,0.0093,-0.0075,0.0027,0
2046,-0.2399,-0.139,10.4401,0.0131,0.0012,-0.0268,0
2066,-0.3178,0.0496,9.564,-0.0052,0.0584,0.0719,0
2086,-0.1093,0.0487,9.7485,0.0262,0.0098,-0.0141,0
2107,-0.0359,0.0375,9.5594,0.0611,0.0053,-0.028,0
2127,0.0709,0.2815,9.6233,-0.0259,-0.0026,0.0144,0
2147,-0.0669,-0.0561,9.9189,0.02,0.0113,0.0101,0
2167,0.0072,0.3484,10.0718,-0.029,-0.0582,0.0437,0
2187,0.0867,-0.0052,9.8743,-0.0063,0.0116,0.0065,0
2207,0.112,-0.325,9.7813,-0.0467,-0.0044,-0.0019,0
2227,0.1389,0.1995,9.5645,0.0134,-0.0099,-0.0103,0
2247,0.0808,0.0859,9.8484,-0.0085,0.0209,-0.0113,0
2267,0.1298,-0.009,9.789,0.0362,0.0161,-0.0021,0
2287,0.0289,0.1061,9.6772,-0.0538,0.012,-0.0649,0
2307,0.1117,-0.0617,10.1448,0.0169,-0.0227,-0.0597,0
2327,-0.0661,0.0365,9.7267,-0.0209,0.0577,-0.0071,0
2347,-0.1083,0.0119,9.8382,-0.0439,-0.0288,0.0055,0
2367,-0.2361,0.0486,9.5415,-0.0092,0.0217,0.012,0
2387,0.0752,0.0908,9.6517,-0.0095,0.003,-0.0024,0
2408,0.2509,-0.0085,9.6088,-0.0032,0.0273,0.004,0
2428,0.1626,-0.1413,10.0672,0.0102,-0.037,-0.0114,0
2448,-0.208,0.2348,9.9234,0.0096,-0.0675,0.0127,0
2468,0.1292,0.1111,10.1837,-0.0075,-0.0475,-0.0027,0
2488,-0.1363,0.0178,9.6813,0.0574,0.0469,-0.0302,0
2508,-0.1122,-0.133,9.9232,0.0252,0.0168,-0.026,0
2528,0.0251,-0.4088,9.8344,-0.0036,-0.033,0.0166,0
2548,-0.0234,-0.5816,9.9868,0.0137,0.0093,-0.0218,0
2568,0.1751,-0.8814,10.0587,-0.0139,0.0241,-0.0131,0
2588,-0.1822,-1.0863,10.1466,-0.013,0.0039,0.0258,0
2608,0.0878,-1.5125,10.1465,0.014,-0.0041,-0.0265,0
2628,0.1759,-1.6353,9.8746,0.0272,0.0291,0.0374,0
2648,-0.1057,-1.7446,9.9871,0.0143,0.0509,0.0207,0
2668,0.0382,-1.7883,10.3731,-0.005,-0.0005,0.0278,0
2688,0.0113,-2.2746,10.1377,0.046,0.0388,-0.0247,0
2709,-0.139,-2.6241,10.9255,-0.0422,0.0077,-0.0135,0
2729,0.0937,-2.579,10.6078,0.0549,-0.028,0.0006,0
2749,-0.3502,-2.7585,10.4884,-0.0077,0.0068,0.0241,0
2769,-0.0568,-3.2726,10.4462,-0.001,-0.0089,0.0169,0
2789,0.0466,-3.575,10.6417,-0.0103,0.0539,-0.0088,0
2809,-0.316,-3.7181,10.946,-0.0108,-0.0069,0.0487,0
2829,0.0796,-3.6651,11.1455,-0.044,-0.0178,-0.0298,0
2849,0.1129,-3.6382,10.7191,-0.0015,0.0029,-0.0393,0
2869,-0.1353,-4.0744,10.2365,0.0577,-0.0076,-0.0119,0
2889,0.0065,-4.3378,11.047,0.0017,-0.0151,-0.0231,0
2909,0.1227,-4.3183,10.7274,-0.0184,-0.0093,0.021,0
2929,-0.1693,-4.5912,10.7452,-0.0409,0.0582,-0.0364,0
2949,0.0336,-4.8157,11.2099,-0.0176,-0.0275,0.032,0
2969,-0.0493,-4.5883,10.9682,0.0502,0.0595,-0.0161,0
2989,-0.0868,-4.9881,11.086,-0.0094,0.0449,-0.0238,0
3010,0.0068,-4.8873,10.7379,-0.0374,0.0325,0.0058,0
3030,0.1533,-5.0988,11.1157,0.0601,0.0209,-0.0541,0
3050,0.0297,-5.053,10.8913,-0.0406,-0.0472,0.0417,0
3070,0.0064,-4.982,11.2099,-0.0032,-0.0801,-0.0004,0
3090,-0.0914,-5.0891,10.8103,-0.0095,0.011,-0.016,0
3110,0.0031,-4.8373,11.1018,-0.0454,0.0145,-0.0372,0
3130,-0.0668,-5.1329,11.1168,-0.0356,0.0192,0.0281,0
3150,0.3015,-5.2979,11.0083,-0.015,-0.0383,-0.0657,0
3170,-0.2237,-5.0828,10.8349,-0.0082,-0.0092,-0.0008,0
3190,-0.1354,-5.1633,10.8565,-0.0037,0.0091,-0.0355,0
3210,-0.0782,-5.4552,10.8642,-0.0164,-0.0124,0.0202,0
3230,-0.0348,-5.0137,10.8191,0.0429,-0.0006,-0.0397,0
3250,-0.1183,-5.0043,11.0768,0.0048,0.0129,-0.0415,0
3270,0.1325,-5.1319,11.2655,0.0378,-0.0023,0.0432,0
3290,0.2524,-4.9046,10.9746,0.0088,-0.0704,0.0101,0
3311,-0.1696,-4.8159,11.1902,-0.0242,0.0072,0.0215,0
3331,0.066,-4.666,11.1427,-0.019,-0.0359,-0.0105,0
3351,0.2074,-4.6143,11.1795,0.0313,0.0206,-0.0301,0
3371,-0.2472,-4.4378,10.5405,0.02,-0.0181,0.0179,0
3391,-0.0282,-4.4992,10.5292,0.0027,0.0917,-0.0445,0
3411,0.2773,-4.3495,10.4004,-0.0057,0.0275,-0.0035,0
3431,-0.1269,-3.9676,10.7603,-0.0224,-0.0025,0.0348,0
3451,0.2762,-3.9176,11.0299,-0.0243,-0.017,-0.0036,0
3471,0.1298,-3.7593,10.3878,-0.032,0.0093,0.0452,0
3491,-0.2616,-3.8311,10.2381,0.0081,-0.0241,0.0493,0
3511,-0.0537,-3.2197,10.4554,0.0021,-0.0048,0.0277,0
3531,0.0657,-3.2574,10.324,-0.0045,0.0143,0.0315,0
3551,-0.0177,-2.691,10.4217,0.0438,0.045,0.0026,0
3571,-0.0429,-2.8336,10.4851,-0.0145,0.001,-0.0308,0
3591,-0.0668,-2.2985,10.3315,-0.0271,-0.0063,-0.0124,0
3612,0.1342,-2.2559,10.3455,0.0307,0.0257,-0.0428,0
3632,-0.0618,-2.2684,10.4196,-0.0433,-0.0177,-0.0362,0
3652,-0.1927,-1.7125,9.9729,-0.0211,0.0082,0.0212,0
3672,-0.3185,-1.5672,9.977,-0.0385,-0.0307,-0.0072,0
3692,-0.1348,-1.4405,10.0786,0.0195,-0.0389,0.0402,0
3712,0.1061,-1.1854,10.0725,-0.0073,0.0179,-0.0456,0
3732,-0.1299,-1.1332,10.0931,0.0082,-0.0223,-0.0195,0
3752,0.0193,-0.6253,9.4676,0.0383,-0.0266,-0.0115,0
3772,0.2156,-0.454,10.3017,-0.0655,0.02,-0.0098,0
3792,0.0873,-0.0539,9.742,-0.0218,0.014,0.0124,0
3812,-0.1406,0.0901,10.0585,0.0072,0.0274,0.0112,0
3832,-0.1086,-0.0327,9.8466,-0.013,-0.0076,-0.0499,0
3852,-0.1773,-0.0688,9.9316,-0.007,0.004,0.0303,0
3872,-0.1863,-0.2162,10.017,-0.0038,-0.0385,-0.0276,0
3892,-0.2826,-0.1512,9.7641,-0.0133,-0.0353,0.0219,0
3913,0.1038,-0.1895,9.6454,-0.0328,0.0359,0.0361,0
3933,0.1764,0.1884,9.9336,0.0598,0.0247,0.0124,0
3953,0.5244,0.242,9.7435,0.0221,0.0156,0.0077,0
3973,-0.1221,-0.1298,9.8862,-0.038,0.0181,-0.0031,0
3993,0.0345,0.1395,9.7157,-0.0223,0.0308,-0.0065,0
4013,0.0149,0.0122,9.9432,0.0035,-0.0014,-0.0307,0
4033,0.0153,0.1779,9.969,-0.0661,0.0028,-0.0013,0
4053,-0.1427,-0.0846,10.0018,-0.0524,0.0017,0.0522,0
4073,-0.0443,-0.1637,9.3571,0.0402,0.0334,0.069,0
4093,-0.0237,0.1067,9.6274,-0.0462,0.0239,0.0375,0
4113,-0.1702,0.1154,9.688,-0.0297,-0.029,0.0005,0
4133,0.0771,-0.3234,9.7763,-0.0306,0.0259,0.0525,0
4153,-0.0151,-0.2441,10.1163,-0.0053,0.0138,-0.0142,0
4173,-0.019,-0.1279,9.6919,0.0124,0.0274,0.0089,0
4193,0.1965,-0.0769,10.1146,0.0256,0.0261,0.048,0
4214,0.0389,0.2122,9.8397,-0.013,-0.0001,0.0467,0
4234,0.0582,-0.0693,9.7353,-0.0389,-0.0039,0.052,0
4254,-0.0318,0.0361,9.5585,0.0249,0.0403,0.0161,0
4274,0.1064,-0.0239,9.8452,-0.0364,-0.0435,-0.0886,0
4294,0.0584,0.0842,9.9264,0.015,0.0082,0.015,0
4314,-0.0748,-0.2355,9.7037,-0.0496,-0.0136,0.0083,0
4334,0.0609,-0.2455,9.8228,-0.0221,0.0122,0.0603,0
4354,-0.255,0.0989,9.673,-0.0161,-0.0423,-0.0124,0
4374,0.1859,-0.0535,10.0192,-0.0469,-0.0198,-0.0536,0
4394,-0.1411,-0.2039,9.9243,0.0201,0.0278,0.008,0
4414,0.1069,-0.0027,10.0814,0.0316,0.0654,0.0141,0
4434,0.1469,-0.1148,9.74,0.043,-0.0383,-0.0171,0
4454,-0.3969,0.1687,9.6143,-0.0414,0.0165,0.0126,0
4474,-0.0819,0.064,9.9201,-0.0376,-0.0423,-0.0034,0
4494,-0.1837,-0.0968,9.9412,-0.068,-0.017,0.0041,0
4515,0.05,-0.0539,9.923,-0.0071,-0.023,0.03,0
4535,0.2506,-0.1644,9.5408,-0.0191,-0.0593,0.0151,0
4555,-0.0192,-0.0132,9.8195,0.055,-0.0103,-0.0464,0
4575,-0.1651,-0.0103,9.5268,0.0053,0.0342,0.017,0
4595,0.3408,-0.1056,9.6773,0.0589,-0.0468,0.025,0
4615,-0.048,-0.0758,9.7762,0.0453,0.0243,-0.0366,0
4635,0.0251,0.0634,9.7144,0.0583,0.0401,-0.0111,0
4655,0.0189,-0.088,9.6353,0.0289,-0.036,0.0366,0
4675,0.2021,-0.0508,9.7434,0.0172,-0.0594,0.0149,0
4695,0.1152,-0.1287,10.1596,0.0628,0.0007,0.0183,0
4715,0.0983,-0.2591,9.8245,-0.0424,-0.0047,-0.0073,0
4735,-0.0394,-0.2681,10.0433,0.0039,0.0043,0.0272,0
4755,-0.2892,-0.0081,9.694,-0.0029,0.01,-0.0211,0
4775,-0.0035,-0.2137,9.8946,0.0026,-0.0049,0.016,0
4795,-0.0143,-0.2642,9.974,-0.0036,-0.0034,-0.0319,0
4816,0.1375,-0.1233,9.8828,-0.0064,0.0125,0.022,0
4836,0.0924,0.1542,9.5919,0.0206,-0.0164,0.0463,0
4856,-0.2169,-0.1179,9.7044,-0.011,-0.0202,-0.0307,0
4876,-0.0709,0.1769,9.6438,-0.031,-0.0059,0.0159,0
4896,0.1681,-0.0077,9.8223,-0.0002,0.0495,0.0042,0
4916,-0.0922,0.1025,9.5422,0.0341,0.0101,0.0261,0
4936,0.2364,-0.1182,10.164,0.0209,-0.0574,-0.0114,0
4956,-0.038,-0.0522,9.9208,-0.016,-0.0197,0.0434,0
4976,0.117,0.0815,10.2637,-0.0156,-0.0486,-0.0252,0
4996,0.0015,0.0235,9.5987,-0.0602,-0.0304,-0.0312,0
5016,-0.179,-0.1401,9.8862,0.0163,-0.0169,0.01,0
5036,-0.0794,-0.022,9.5181,0.0198,0.0019,-0.0092,0
5056,0.0807,-0.2212,9.6934,-0.0196,0.0412,0.0172,0
5076,0.1714,0.0063,9.5236,0.0061,0.007,0.0143,0
5096,0.0811,-0.0411,9.4958,-0.0114,0.0838,0.0518,0
5117,-0.3086,0.0318,9.4956,-0.0054,0.0185,0.0458,0
5137,0.2117,-0.1946,9.5734,-0.0007,0.0286,0.0335,0
5157,-0.0599,0.137,9.5484,0.0143,-0.0122,-0.019,0
5177,0.1604,0.0172,10.0838,-0.0716,-0.045,0.0024,0
5197,-0.0319,-0.2063,9.8899,0.0108,0.0211,-0.0029,0
5217,0.198,0.4088,9.6908,-0.0219,0.0042,-0.0382,0
5237,-0.0243,-0.0344,10.0386,-0.0479,-0.0022,-0.0605,0
5257,-0.0422,0.1707,9.9624,-0.0095,0.0053,-0.0002,0
5277,-0.0877,-0.2249,10.0547,0.0175,0.0161,-0.0295,0
5297,-0.0633,0.1555,9.5235,0.0405,0.0039,-0.0175,0
5317,0.0558,0.0439,9.8812,-0.0441,0.0026,-0.0247,0
5337,0.019,0.0439,9.953,0.0135,0.0161,0.001,0
5357,-0.0895,0.0608,10.0995,0.0133,0.0153,0.0312,0
5377,-0.204,0.2539,9.8881,-0.0335,0.0233,-0.0115,0
5397,0.2783,0.0004,10.0123,-0.0003,0.0074,0.0079,0
5418,-0.0648,-0.0496,9.6815,0.0117,-0.0141,-0.0195,0
5438,0.1325,-0.1009,9.5846,0.0169,0.0108,-0.0054,0
5458,0.0244,0.0799,9.6431,0.0001,0.0429,0.0002,0
5478,0.0314,0.1911,9.7828,0.0012,-0.0009,-0.0058,0
5498,0.0512,0.0649,10.06,0.0065,-0.0241,-0.0008,0
5518,0.2425,0.0251,9.7748,-0.0176,-0.0274,0.0093,0
5538,0.05,0.237,9.6844,-0.0131,0.0189,-0.0216,0
5558,-0.2287,-0.1531,9.6973,-0.0213,0.0377,0.0385,0
5578,-0.1737,-0.1847,10.0936,0.0352,-0.0331,-0.0404,0
5598,0.1589,0.1656,9.8919,0.036,0.0352,0.0403,0
5618,0.1264,-0.1332,10.1193,0.0371,-0.0125,-0.0322,0
5638,-0.0158,0.0307,9.8379,-0.0144,0.0293,-0.0057,0
5658,-0.1437,-0.1214,9.8652,-0.0207,-0.013,0.0345,0
5678,0.2951,0.0151,10.0452,0.0117,-0.0034,-0.0292,0
5698,0.1867,-0.0335,9.8714,-0.0629,0.0033,-0.0525,0
5719,0.039,-0.0691,9.5063,-0.0034,0.003,-0.045,0
5739,-0.0059,-0.0581,9.6284,-0.0051,0.0188,0.0107,0
5759,0.0274,-0.1849,9.6366,0.0023,-0.0012,0.0274,0
5779,0.197,0.0724,9.8351,0.0059,0.0247,-0.0236,0
5799,0.0215,0.1677,9.8941,0.0069,0.0346,-0.0107,0
5819,0.0948,-0.0488,9.7319,-0.0149,-0.0241,0.0169,0
5839,0.1687,-0.1397,9.8841,-0.005,-0.0247,0.0344,0
5859,-0.0545,0.0493,9.7095,0.0155,-0.0332,0.0146,0
5879,0.1846,0.1045,9.6107,-0.0156,0.0002,0.0241,0
5899,0.1619,0.2475,9.4973,-0.0148,0.0476,0.0541,0
5919,-0.1361,0.0123,9.8517,-0.0136,0.0095,-0.0005,0
5939,-0.0476,-0.0702,10.0073,-0.0392,-0.0103,0.0433,0
5959,0.1181,-0.0925,9.6269,0.0023,-0.0153,-0.0755,0
5979,0.1926,-0.1164,9.6899,0.0033,-0.0267,-0.0318,0
6000,0.056,-0.0292,10.1148,-0.0257,-0.0113,-0.031,0
