timestamp_ms,ax,ay,az,gx,gy,gz,label
0,-0.1208,0.1,9.8225,0.0388,0.0068,0.0423,0
20,-0.1285,0.3255,9.8466,-0.036,0.0005,0.0122,0
40,0.2566,0.0765,9.9476,0.0049,-0.0172,-0.0289,0
60,0.3356,0.2494,9.6436,0.0022,-0.0001,0.0564,0
80,-0.1672,0.2075,10.3792,0.0378,0.0196,0.0219,0
100,-0.1204,0.1263,10.103,0.0436,-0.005,0.0407,0
120,0.2057,0.1972,9.693,0.0278,0.0168,-0.0907,0
140,0.096,0.5174,9.57,0.0141,-0.0335,0.0132,0
160,0.1218,0.3088,9.7907,-0.0419,-0.0242,0.0337,0
180,0.1614,0.3967,9.8501,-0.0428,-0.0294,0.068,0
200,-0.0433,0.0346,10.0444,-0.0338,-0.0226,-0.0586,0
220,0.0594,0.3973,9.5529,0.0301,0.0515,0.0482,0
240,0.0454,0.315,9.8728,0.0029,0.029,0.0658,0
261,-0.1545,-0.0699,9.4736,0.0347,-0.0431,-0.0807,0
281,0.0567,0.2972,9.906,0.0401,0.0175,0.0191,0
301,0.2228,0.1076,9.7863,-0.029,-0.0156,0.0247,0
321,-0.0601,-0.0782,10.2361,0.0013,-0.0273,-0.0131,0
341,0.0275,0.2234,9.4699,-0.0005,-0.0594,-0.0196,0
361,0.0372,0.297,10.1115,-0.0131,0.0389,0.0267,0
381,-0.0512,0.2273,9.4352,-0.0214,-0.0546,-0.0246,0
401,0.1218,0.1804,9.518,0.0474,-0.0021,-0.0087,0
421,-0.1224,0.1405,9.441,0.0021,-0.0379,0.0325,0
441,0.2399,0.644,9.8651,0.0005,0.031,0.0702,0
461,0.1127,-0.0129,9.5518,-0.0321,-0.0134,0.0215,0
481,-0.1686,0.3571,9.5134,0.027,-0.0054,0.0053,0
502,0.3056,0.2028,9.8546,-0.0402,-0.004,-0.0207,0
522,0.0303,0.0462,9.9094,0.0182,0.0121,-0.0404,0
542,-0.1301,0.1913,9.8188,0.0193,0.0005,0.0444,0
562,0.1988,-0.0507,9.7743,-0.0165,-0.0017,-0.0061,0
582,0.089,0.0928,10.2124,0.0127,-0.0207,0.046,0
602,-0.319,0.1916,9.8421,0.0074,-0.063,-0.0132,0
622,-0.0946,-0.0792,9.9873,-0.0016,-0.0447,-0.026,0
642,0.0502,0.2911,9.8414,0.0005,0.0287,0.0168,0
662,-0.3887,0.0265,9.5685,0.0025,-0.0122,-0.0031,0
682,0.0153,-0.0613,9.931,0.0052,-0.0266,-0.0482,0
702,0.0284,0.0055,9.6657,0.0024,-0.0562,0.0727,0
722,-0.213,0.5917,9.79,-0.0442,-0.0688,-0.0251,0
742,0.0487,-0.1561,9.8772,-0.0061,-0.0281,0.0371,0
763,0.0013,0.2785,9.3829,0.0106,0.0355,0.0337,0
783,-0.2144,0.0647,9.4559,0.0039,-0.0223,-0.0504,0
803,0.1655,0.137,10.0101,0.0382,0.016,-0.0401,0
823,0.1508,0.3087,9.664,0.0248,-0.0241,-0.0121,0
843,-0.0522,0.2999,9.6744,-0.0348,0.0256,-0.0346,0
863,-0.0357,0.0775,9.8466,-0.0067,-0.0141,0.0691,0
883,0.1307,-0.0444,9.7252,-0.0125,-0.0493,-0.008,0
903,-0.0361,0.312,9.9019,-0.0002,-0.0108,0.0356,0
923,-0.3476,0.2994,9.7988,-0.0001,0.0734,0.0205,0
943,0.0876,0.1487,9.8537,0.0245,0.0716,0.0106,0
963,-0.1464,0.2795,9.6556,0.0071,0.0195,0.0016,0
983,-0.0702,0.1198,9.8526,0.0492,-0.0055,0.0495,0
1004,0.2624,0.0511,10.0531,0.0096,0.0122,-0.033,0
1024,-0.0241,0.2007,9.6851,-0.0332,0.0127,0.0691,0
1044,0.0003,0.2934,10.0114,-0.0187,-0.0016,-0.0515,0
1064,0.0917,0.2557,9.7987,0.0242,0.0176,0.0313,0
1084,0.091,0.2916,9.9716,-0.0646,0.0083,-0.0562,0
1104,-0.1655,0.0631,9.8383,-0.0538,-0.0126,-0.0126,0
1124,-0.0109,0.4847,9.8026,0.0004,-0.0478,0.0037,0
1144,0.0065,0.1384,9.8869,0.038,-0.0184,-0.0195,0
1164,0.049,0.1786,10.077,0.0523,0.032,-0.0073,0
1184,0.0521,-0.0374,9.8619,-0.0087,-0.0013,-0.0555,0
1204,0.4657,0.1651,9.9153,0.0424,0.012,-0.0395,0
1224,-0.2117,0.2958,9.7289,0.0029,-0.0113,0.0199,0
1244,0.1764,0.3373,10.1556,-0.0613,-0.0424,0.0012,0
1265,0.213,0.4811,9.9509,-0.0003,-0.0095,-0.0276,0
1285,0.0887,0.2936,9.8271,-0.0248,-0.0409,0.053,0
1305,-0.1171,0.2498,9.783,0.0367,-0.0435,-0.0488,0
1325,0.2996,0.1197,10.0251,-0.001,0.0482,-0.0145,0
1345,-0.3946,0.0809,9.6766,-0.0511,-0.0168,-0.0202,0
1365,-0.123,0.3746,9.4178,-0.06,-0.0297,0.0246,0
1385,0.2109,0.3712,9.8259,-0.0008,0.0647,0.0019,0
1405,-0.0666,0.0061,10.0718,-0.0968,0.0326,-0.0043,0
1425,0.2874,0.3302,10.1601,-0.0207,-0.0149,-0.0738,0
1445,-0.2721,0.3171,9.7864,0.0092,0.0171,0.0346,0
1465,-0.2002,-0.0005,9.8196,-0.0423,-0.0094,-0.0087,0
1485,-0.0957,0.2973,9.9243,0.0398,-0.0277,0.0046,0
1506,0.0751,0.0111,9.7518,0.0476,0.019,-0.0299,0
1526,-0.04,-0.2373,9.9236,-0.0407,-0.013,-0.0362,0
1546,-0.0883,0.1712,9.7912,-0.0119,0.003,0.06,0
1566,0.2557,0.2464,10.0325,0.0398,0.0409,-0.0709,0
1586,0.2724,0.1793,9.9691,-0.0001,0.0364,-0.0422,0
1606,-0.0746,0.7161,9.9883,-0.0558,-0.022,0.0592,0
1626,-0.3078,0.2682,9.7648,-0.0057,0.0194,0.0256,0
1646,-0.3883,0.2265,10.2337,-0.0341,-0.0451,-0.013,0
1666,0.0431,0.2773,9.9165,0.0443,0.018,0.0499,0
1686,0.1181,0.1206,9.8644,0.0242,0.0059,0.0179,0
1706,0.0113,0.3673,9.6426,-0.0126,0.0152,0.0093,0
1726,-0.0128,0.265,9.7886,0.0057,-0.0119,0.009,0
1746,-0.1448,0.2567,9.8352,-0.0523,0.0834,0.0186,0
1767,0.1179,0.0877,9.6367,-0.0302,-0.0361,0.0202,0
1787,0.3021,-0.0816,9.7457,0.0621,0.0389,0.0878,0
1807,-0.399,0.1098,9.7735,0.0021,-0.0413,-0.0078,0
1827,-0.014,0.2509,9.8223,0.0372,0.0202,-0.0066,0
1847,-0.1747,0.12,9.4222,0.0093,0.023,-0.0495,0
1867,-0.2683,0.2525,9.7802,0.0526,0.0022,-0.0021,0
1887,-0.2034,0.1582,9.727,-0.08,-0.0198,0.0745,0
1907,0.0683,0.2775,9.8054,-0.0075,0.0056,0.0394,0
1927,0.0729,0.0242,10.0378,0.0658,0.0107,-0.0217,0
1947,0.2629,0.2347,10.2615,0.0382,0.0716,0.0012,0
1967,0.0016,0.0846,9.9592,0.053,-0.0349,-0.0519,0
1987,-0.3165,-0.0769,9.5384,-0.0003,-0.0222,-0.0388,0
2008,-0.0429,0.1703,9.734,-0.0215,0.0114,0.006,0
2028,-0.2495,0.4765,9.9411,-0.0411,-0.0102,-0.0198,0
2048,-0.2172,-0.0625,9.9163,-0.0439,-0.004,-0.0418,0
2068,0.1045,0.2215,10.0272,0.0323,0.0428,0.0196,0
2088,0.035,0.3436,9.7886,0.0205,-0.1128,-0.0033,0
2108,0.1058,0.614,9.73,-0.0027,-0.0239,-0.0627,0
2128,-0.0643,0.1113,10.1955,0.0203,-0.0697,-0.083,0
2148,0.1423,0.0862,9.8229,0.0057,-0.0478,-0.0228,0
2168,-0.0744,-0.01,9.5863,0.0385,0.0962,-0.0635,0
2188,0.201,0.4053,10.1345,0.0381,0.0239,-0.0748,0
2208,0.062,0.0439,9.4809,-0.0426,0.0381,0.0452,0
2228,-0.0373,0.1333,9.0411,0.0109,-0.0032,-0.0039,0
2248,0.0382,-0.1328,9.9793,-0.0668,0.0303,-0.0106,0
2269,-0.0032,0.3591,10.0104,0.0053,-0.0707,-0.0075,0
2289,0.2873,0.4085,9.9011,0.0242,0.0415,-0.0455,0
2309,0.0442,0.3522,9.5235,-0.0525,-0.0328,0.0164,0
2329,-0.0003,-0.089,9.797,-0.0167,-0.0213,-0.0052,0
2349,-0.0429,0.3093,9.7488,0.0004,0.0202,-0.0303,0
2369,0.1518,-0.1011,9.6918,0.0094,0.0127,-0.0243,0
2389,0.1274,0.2104,10.1207,-0.0111,0.0034,-0.0491,0
2409,-0.0493,0.2369,9.5797,-0.0469,-0.0545,-0.0162,0
2429,-0.208,0.2558,9.8795,-0.0022,0.004,-0.0096,0
2449,-0.1624,0.2962,10.0727,-0.0661,0.0384,-0.0173,0
2469,-0.0331,0.1986,9.8939,-0.0093,-0.0213,0.0022,0
2489,0.2428,-0.1532,10.083,-0.0177,0.0526,-0.0031,0
2510,-0.045,0.2963,9.934,-0.0054,-0.0349,0.0092,0
2530,-0.1069,0.2176,9.9045,-0.0224,0.0003,0.0377,0
2550,-0.3169,0.0375,9.8907,-0.0603,0.0614,0.0237,0
2570,0.2724,-0.0825,9.945,-0.0147,-0.0273,0.0382,0
2590,0.1024,0.4772,9.7252,0.0372,0.0422,-0.0339,0
2610,0.1433,0.4216,9.5236,0.0505,0.079,-0.0203,0
2630,0.1731,0.3271,10.0199,0.0976,0.0068,0.0261,0
2650,-0.0297,0.0783,10.0656,0.0677,-0.0211,0.0269,0
2670,0.0152,-0.2531,9.8654,-0.0479,-0.0309,-0.0271,0
2690,0.2679,0.3376,9.6894,-0.0163,0.0522,0.0245,0
2710,0.0323,0.266,9.4673,-0.0009,0.0511,-0.0377,0
2730,0.1058,0.1326,9.8289,-0.0034,0.058,0.0192,0
2751,0.1567,0.4025,9.5132,0.0028,-0.0013,-0.0011,0
2771,0.1157,0.3526,9.4824,0.0963,0.0415,-0.0554,0
2791,-0.0231,0.2317,9.8054,-0.0433,-0.002,-0.0174,0
2811,-0.0061,0.2063,9.642,-0.0285,-0.0353,0.0873,0
2831,0.14,0.2092,9.886,0.0658,0.045,0.0081,0
2851,0.1397,0.3224,9.775,-0.0246,0.0654,0.092,0
2871,0.2103,0.0457,9.6765,0.0157,-0.0408,-0.0578,0
2891,0.0992,0.2767,9.4349,0.0414,-0.0416,0.03,0
2911,0.1074,0.0343,9.6224,0.0195,0.0016,-0.1014,0
2931,-0.0803,0.4406,9.6304,0.0077,0.0382,-0.0,0
2951,-0.1046,0.2958,9.5404,0.0375,-0.0454,0.0252,0
2971,0.1405,0.0761,9.7376,-0.0357,0.0091,0.0335,0
2991,-0.1034,0.2145,9.5576,-0.0199,-0.0236,-0.032,0
3012,-0.0037,0.0463,9.774,0.0214,0.028,0.0416,0
3032,0.2482,0.4707,9.8629,-0.0828,-0.0319,-0.0213,0
3052,0.2197,0.4921,9.6282,0.0567,0.0309,-0.0066,0
3072,0.0543,0.3253,9.9036,0.0121,-0.0063,-0.0173,0
3092,-0.0533,0.4802,9.5105,0.0061,-0.0375,-0.0455,0
3112,-0.0222,0.2273,9.5653,-0.0652,0.0025,0.0628,0
3132,0.1562,0.3374,9.7851,-0.0515,-0.0775,0.0019,0
3152,-0.0066,0.4205,9.9611,-0.0159,-0.0224,0.0435,0
3172,-0.1005,0.199,10.0008,0.0323,0.0135,0.0418,0
3192,0.2188,0.2128,10.1647,-0.0831,-0.0709,-0.0387,0
3212,0.0327,0.3681,9.7272,0.0315,-0.1028,0.0486,0
3232,-0.1039,0.3164,9.7819,-0.0144,-0.0936,0.0201,0
3253,0.0862,0.064,9.5828,-0.0089,0.0531,-0.0416,0
3273,0.1748,-0.1936,9.5342,0.0101,-0.0031,0.018,0
3293,-0.1814,0.1684,9.8603,0.0108,-0.0213,-0.0409,0
3313,-0.0361,-0.1774,9.6393,-0.0285,0.0378,0.0643,0
3333,-0.0444,0.0216,10.0811,0.025,-0.0162,0.0326,0
3353,0.0814,0.0426,9.4883,-0.0928,0.0107,-0.0028,0
3373,0.1138,0.0976,9.917,-0.018,0.001,0.0506,0
3393,-0.0993,0.3477,9.5887,0.0061,-0.0188,-0.0633,0
3413,-0.2687,0.3868,9.6295,-0.0138,0.0118,-0.03,0
3433,0.1857,0.2916,9.9286,-0.0731,0.0309,-0.0101,0
3453,-0.2016,0.3139,9.6613,0.0303,-0.0074,0.0894,0
3473,0.0488,0.3181,9.6965,-0.0499,-0.0184,-0.0428,0
3493,-0.0238,-0.2494,9.6313,-0.0027,-0.0137,-0.0683,0
3514,0.0292,0.2018,10.2027,0.0061,-0.0919,-0.0578,0
3534,0.2972,-0.1234,9.6742,0.0008,0.0113,0.0362,0
3554,0.5469,0.2916,9.8213,0.0468,-0.0484,-0.0238,0
3574,-0.294,-0.1768,9.7656,-0.0021,0.0252,-0.0064,0
3594,0.1771,0.1675,9.8587,0.0171,-0.0036,0.0305,0
3614,-0.0281,0.2986,9.6748,-0.0022,0.0042,-0.0063,0
3634,0.1886,-0.0012,9.7658,0.0245,0.028,0.0082,0
3654,0.1723,0.3731,9.8967,0.0557,-0.0371,0.0214,0
3674,0.2538,0.2912,9.6201,0.0055,0.0148,-0.0172,0
3694,0.0513,0.2685,10.0497,0.0313,0.0107,-0.0067,0
3714,-0.1601,0.3256,10.0708,0.0582,-0.0074,0.0097,0
3734,0.167,0.1353,9.9434,0.0543,-0.0371,0.0347,0
3755,0.0212,0.2273,9.8254,-0.0154,0.0238,-0.0317,0
3775,-0.0421,0.2018,9.1521,0.0415,0.0281,-0.1208,0
3795,-0.0857,0.1977,9.9033,0.01,0.0045,0.0272,0
3815,0.1811,0.079,9.7239,0.0447,-0.0428,0.0371,0
3835,0.2886,-0.0237,9.7558,0.0227,-0.0211,0.008,0
3855,-0.2152,0.1394,9.3926,0.011,-0.0024,0.0107,0
3875,0.112,0.1294,9.9186,0.0174,0.0275,-0.0226,0
3895,-0.067,0.0674,9.4913,0.0102,-0.0633,0.02,0
3915,-0.2641,0.3534,9.8361,0.0118,-0.0226,0.0341,0
3935,0.0266,-0.011,10.009,-0.0064,-0.0161,0.0023,0
3955,-0.15,0.1691,9.7067,-0.0101,-0.0033,0.0996,0
3975,-0.284,0.4099,10.0775,0.0705,-0.0521,-0.0625,0
3995,-0.1407,0.3636,9.6457,0.0191,-0.0087,0.0065,0
4016,-0.185,0.4189,9.9421,-0.0229,-0.0124,-0.047,0
4036,-0.1164,0.0937,9.5229,-0.0111,-0.0415,0.0352,0
4056,-0.2387,0.3412,10.0368,0.0423,-0.0047,-0.0633,0
4076,-0.0711,0.0087,10.0027,-0.0294,-0.0216,-0.0534,0
4096,-0.1284,0.1503,9.913,-0.0593,0.0198,-0.0253,0
4116,0.0676,0.1673,9.7235,-0.0563,-0.0354,0.0106,0
4136,0.1068,0.0963,9.5016,-0.0692,0.0036,-0.0238,0
4156,0.0468,0.1349,9.7241,-0.052,-0.0323,-0.0234,0
4176,-0.0424,0.1112,10.0543,-0.0472,-0.024,-0.0072,0
4196,-0.0472,0.0232,9.8386,0.0554,0.0119,-0.0097,0
4216,-0.1507,0.3542,9.4683,-0.0018,0.0094,0.0595,1
4236,-0.1463,-0.1954,9.643,-0.0145,-0.0167,0.0274,1
4257,0.1266,-0.4864,10.2461,-0.0577,-0.0108,-0.013,1
4277,-0.3167,-0.8487,10.1567,-0.0057,-0.0581,0.0839,1
4297,-0.0145,-1.2168,9.8552,-0.0695,0.0561,0.0197,1
4317,-0.0582,-1.5492,9.8135,-0.0148,0.0275,-0.0388,1
4337,0.1078,-1.9487,10.1372,0.0826,0.0261,0.0103,1
4357,-0.2565,-1.9526,9.9372,0.0266,-0.0638,0.0214,1
4377,0.0022,-2.3696,10.3765,-0.0084,-0.0238,-0.0275,1
4397,0.0617,-2.7842,11.0125,0.0279,-0.0134,-0.0421,1
4417,-0.3429,-3.1297,10.1799,-0.0209,-0.0772,0.0035,1
4437,-0.1934,-3.3112,10.5437,-0.032,0.0356,-0.0144,1
4457,-0.0165,-3.4326,10.9216,0.0682,0.0582,0.0592,1
4477,0.0925,-3.4317,10.8408,-0.0457,0.0825,0.0296,1
4497,0.0328,-4.1174,10.6807,-0.0142,-0.0418,-0.0256,1
4518,0.1009,-3.8937,10.7128,0.0122,0.0047,0.017,1
4538,-0.1943,-3.9246,10.5162,-0.0374,0.0529,0.0507,1
4558,-0.286,-4.4818,10.7309,0.026,-0.0101,-0.0558,1
4578,0.0152,-4.305,10.8563,-0.0123,-0.0227,-0.0409,1
4598,-0.2213,-4.4932,11.0523,0.0266,-0.0746,-0.0004,1
4618,-0.1558,-4.2241,10.6728,0.0234,0.0453,0.0014,1
4638,0.1678,-4.3369,10.7609,-0.0097,-0.0008,-0.0021,1
4658,0.034,-4.2376,10.581,0.0684,-0.0292,-0.0124,1
4678,-0.1023,-4.2014,10.8201,-0.0266,0.0114,-0.013,1
4698,-0.1256,-3.8829,10.9174,0.054,0.0061,0.0154,1
4718,0.1118,-3.8291,10.852,0.047,0.0067,0.0454,1
4738,0.0382,-3.6601,10.4186,0.0708,-0.0087,-0.0192,1
4759,-0.2186,-3.4788,10.6653,0.007,0.0649,0.0975,1
4779,-0.3506,-3.1868,10.4356,-0.0315,-0.0053,0.0784,1
4799,0.3387,-3.0964,10.7536,0.0831,0.0648,0.0532,1
4819,-0.22,-2.4814,10.4376,-0.0134,0.0226,0.0249,1
4839,0.095,-2.7288,10.0764,-0.0325,0.014,0.0803,1
4859,0.2719,-2.5186,10.2961,-0.0076,-0.0045,-0.0116,1
4879,0.0266,-2.2193,10.3756,-0.0393,0.039,-0.0333,1
4899,-0.1081,-1.9402,10.2556,0.021,0.0045,-0.021,1
4919,-0.2567,-1.1055,10.0141,-0.0242,-0.0373,-0.0401,1
4939,-0.2592,-0.7789,9.9206,-0.0115,-0.0386,0.0049,1
4959,0.0678,-0.3053,9.7532,0.0387,0.0169,0.012,1
4979,0.2612,-0.3527,9.8036,0.0249,-0.0363,0.008,1
5000,-0.0712,0.3342,9.6218,0.0006,-0.0025,-0.0005,1
