timestamp_ms,ax,ay,az,gx,gy,gz,label
0,0.1654,0.1929,9.7498,0.002,0.0249,0.042,0
20,0.0734,0.1506,9.6914,0.0121,-0.0182,0.0215,0
40,-0.2226,0.3529,10.104,0.0144,-0.0026,-0.03,0
60,0.0817,-0.0071,10.0423,0.0183,-0.0013,0.0046,0
80,0.1119,-0.074,9.9167,0.0164,0.0483,0.0042,0
100,-0.051,0.0949,9.6029,-0.0469,0.0042,0.023,0
120,0.151,-0.1791,10.0497,-0.0304,0.0136,-0.0344,0
140,0.2698,0.1141,9.6036,0.0354,-0.0179,-0.0138,0
160,-0.0628,0.0062,9.7489,-0.0291,0.0138,0.0308,0
180,-0.1429,0.4126,9.8579,0.0087,-0.0045,0.0232,0
200,-0.0332,0.0658,9.3895,-0.0187,-0.0077,-0.0176,0
220,0.0846,0.4233,9.8592,0.0297,-0.0173,0.014,0
240,-0.0023,0.1686,9.6427,0.0325,0.0064,-0.0135,0
261,-0.1534,0.2193,9.7172,-0.0277,-0.0046,0.0115,0
281,0.1862,0.1675,9.5724,0.0211,-0.029,0.0235,0
301,-0.0273,-0.1466,10.0227,0.0261,-0.0273,-0.0215,0
321,0.0968,0.3192,9.74,0.0176,0.0062,-0.0108,0
341,0.103,0.2258,9.8108,-0.007,0.0028,0.003,0
361,-0.0289,0.1123,10.135,-0.0517,0.0189,-0.0147,0
381,0.0996,-0.1233,10.0012,0.035,0.0039,-0.0183,0
401,0.2771,-0.1706,9.8207,-0.0187,-0.0328,0.0108,0
421,0.1462,0.0572,9.6659,-0.0068,0.0171,0.0324,0
441,-0.259,0.2411,9.6643,0.014,-0.0258,-0.0174,0
461,-0.0281,0.1134,9.8971,-0.0304,0.031,-0.0225,0
481,-0.1107,0.152,9.6234,-0.0335,0.0288,-0.0251,0
502,0.1926,0.3417,9.4331,-0.0257,-0.0179,-0.0027,0
522,-0.0004,0.238,9.654,-0.0278,-0.0249,0.0403,0
542,-0.0238,0.2097,9.8907,-0.0329,-0.0361,-0.012,0
562,-0.2399,0.2105,9.6851,-0.0003,-0.039,0.0397,0
582,0.4898,0.1683,10.0162,0.0063,0.0489,-0.0145,0
602,0.0173,0.1956,9.6794,-0.0209,-0.0242,-0.0393,0
622,-0.0243,0.1808,9.7719,0.0017,-0.0119,0.0512,0
642,-0.242,0.1904,9.6562,-0.0823,0.0744,-0.0042,0
662,0.028,0.6699,9.7819,0.0088,0.0346,0.0284,0
682,-0.0089,0.0829,9.5845,0.002,0.0307,0.0247,0
702,0.0205,-0.2586,10.0696,0.0327,0.0201,0.0193,0
722,-0.2227,-0.0722,10.0049,0.0112,0.0312,-0.0068,0
742,-0.2667,0.2797,9.5423,0.0163,-0.0706,0.0128,0
763,0.2709,0.1633,10.017,-0.021,-0.0039,-0.0073,0
783,-0.1871,0.054,10.0907,-0.0527,-0.0206,-0.0418,0
803,0.0839,0.1676,9.9254,-0.0005,-0.0471,-0.0109,0
823,-0.045,0.2492,10.0509,-0.0461,-0.0439,0.024,0
843,0.1592,0.1879,9.8291,0.0017,-0.0049,0.0319,0
863,0.0305,0.3287,9.9384,0.0145,-0.0422,0.0321,0
883,0.0147,0.4019,9.9075,-0.0032,-0.0067,-0.0005,0
903,0.0229,0.248,9.6245,-0.0294,-0.0136,0.038,0
923,-0.1233,0.0907,9.9829,0.0519,0.0485,-0.0293,0
943,-0.1857,0.3162,9.8831,-0.0087,0.0194,0.0798,0
963,-0.039,-0.0176,9.598,0.0301,0.026,-0.0009,0
983,-0.2449,-0.0866,9.4841,0.0464,-0.0325,0.0028,0
1004,-0.3391,-0.0879,9.8635,0.0387,0.0384,-0.036,0
1024,0.0231,0.0598,9.7808,0.0203,0.0178,-0.0141,0
1044,-0.0438,-0.0718,9.5601,0.0523,-0.0028,0.0213,0
1064,0.1561,0.1533,10.0534,0.0108,-0.0435,0.0155,0
1084,0.1351,0.2024,9.9021,0.0302,0.0118,-0.043,0
1104,0.0826,0.394,9.9024,0.0064,-0.0092,0.0093,0
1124,0.0803,0.0447,9.8404,-0.0255,-0.0203,-0.0501,0
1144,-0.1267,0.2822,9.5644,0.0055,0.0071,0.0369,0
1164,0.0758,0.1426,9.596,-0.0429,-0.0114,0.0373,0
1184,-0.0977,0.2129,10.0549,0.0031,-0.0033,-0.0309,0
1204,0.0931,0.3982,9.8545,-0.0112,-0.0368,0.0064,0
1224,0.4409,0.2317,9.5992,0.0265,-0.0468,-0.0424,0
1244,-0.3846,-0.0208,9.7914,0.0407,0.0437,-0.0134,0
1265,0.1177,-0.078,9.9084,-0.0323,-0.0362,0.0075,0
1285,0.0116,-0.1329,9.7046,0.0119,-0.0348,0.0031,0
1305,-0.0994,-0.1817,9.8514,0.0124,-0.0184,0.0093,0
1325,0.1198,0.0306,10.0166,0.0398,0.0252,0.0054,0
1345,-0.202,0.1339,10.1591,0.027,-0.0198,0.0109,0
1365,0.3287,0.1045,9.4498,0.0336,-0.0048,-0.0187,0
1385,0.1697,0.0015,9.9915,0.0117,-0.0274,-0.0054,0
1405,-0.0887,-0.1984,9.9096,-0.0363,0.0345,0.0012,0
1425,-0.3085,0.3082,9.8752,-0.0215,-0.0631,-0.0053,0
1445,-0.1001,-0.0119,9.6342,0.0129,0.0069,0.0812,0
1465,0.229,0.1833,9.8973,-0.0379,0.0577,0.0028,0
1485,0.3073,-0.0642,9.706,-0.0152,-0.0084,-0.0414,0
1506,-0.038,-0.1592,9.8962,-0.0108,-0.0278,-0.0326,0
1526,0.1139,0.0254,9.9008,-0.0031,-0.0652,0.0074,0
1546,-0.0658,0.1898,10.0627,0.0117,0.0106,-0.0036,0
1566,-0.0461,-0.1709,9.9716,0.0095,0.0275,-0.0053,0
1586,-0.1399,0.0494,9.4282,0.0184,0.0338,-0.0468,0
1606,0.2238,0.0804,9.8195,-0.0277,0.0443,-0.0411,0
1626,-0.1133,0.0325,10.0737,-0.0117,0.0231,-0.0336,0
1646,0.0633,-0.0999,9.5145,0.0139,-0.0487,-0.0294,0
1666,0.0278,0.0761,9.7859,-0.0342,0.0362,-0.0401,0
1686,0.419,-0.0124,9.8768,0.0225,-0.0254,0.021,0
1706,0.0052,-0.133,9.358,0.0033,-0.0122,0.0052,0
1726,-0.0807,0.288,9.8788,-0.0393,0.0216,0.0256,0
1746,-0.1168,0.257,9.6851,0.0253,0.0102,0.0402,0
1767,0.1462,-0.002,9.8434,0.007,-0.0256,0.0072,0
1787,0.3236,0.0049,9.8554,0.0543,0.0111,-0.0235,0
1807,0.2894,0.0842,9.759,0.0343,-0.0816,0.024,0
1827,-0.0785,0.2363,9.8086,-0.0487,0.0264,-0.0402,0
1847,0.1299,0.3103,9.6006,-0.0081,-0.0144,-0.0166,0
1867,-0.1663,-0.1351,9.7856,0.0046,0.0595,-0.0068,0
1887,-0.0037,0.2521,9.6951,0.0083,-0.01,0.0056,0
1907,-0.2196,0.1189,9.8846,-0.0279,0.0368,0.0355,0
1927,0.0072,0.0726,9.8173,0.0025,0.0274,-0.0264,0
1947,-0.1619,-0.093,9.5976,-0.0084,0.0237,-0.0405,0
1967,-0.0108,0.0746,9.6521,-0.0255,0.024,0.0461,0
1987,0.2122,0.0806,9.6518,-0.0149,0.0149,0.0303,0
2008,-0.1359,0.0441,9.7942,-0.0142,0.0194,0.0902,0
2028,-0.0646,0.0726,9.8347,0.0553,0.0223,-0.0461,0
2048,0.1531,0.2714,9.7904,0.0351,-0.0079,0.0046,0
2068,-0.0606,0.15,9.8363,0.0087,-0.0193,-0.0438,0
2088,-0.1925,0.2536,9.6998,-0.0505,-0.0147,0.0494,0
2108,-0.0665,-0.1287,9.6488,0.0423,-0.0093,-0.0558,0
2128,0.0041,0.043,9.5354,-0.0608,0.0061,-0.0287,0
2148,0.0989,0.0205,9.7362,-0.0386,0.0228,0.0089,0
2168,-0.2872,0.1908,9.6843,-0.0456,0.0023,0.0042,0
2188,0.0909,0.1381,10.2701,-0.0281,0.0285,-0.0011,0
2208,0.0315,0.2224,10.2152,0.0504,0.0004,0.0136,0
2228,-0.3365,0.357,9.9057,0.0234,0.0654,0.0316,0
2248,-0.0429,0.1365,9.6297,0.0077,0.0023,0.0128,0
2269,0.0175,0.0946,9.7931,0.0003,-0.0015,-0.0121,0
2289,-0.1392,0.0587,9.8633,-0.0281,-0.02,-0.025,0
2309,-0.1684,-0.1792,9.3714,0.0246,0.034,0.009,0
2329,-0.0085,-0.1,9.804,0.0437,0.0317,0.0135,0
2349,-0.0042,-0.1595,9.5439,0.027,0.0477,0.0181,0
2369,-0.3409,0.0138,9.7429,0.0186,0.0392,-0.0091,0
2389,-0.1113,0.0371,9.6387,0.0303,0.0014,-0.0515,0
2409,-0.1302,0.3765,9.7905,0.002,-0.0352,0.0188,0
2429,-0.2145,0.116,9.7203,-0.0596,0.0057,-0.0154,0
2449,0.1371,0.1244,9.8513,0.0342,0.0314,0.0046,0
2469,0.1507,-0.0202,9.9596,-0.0313,-0.0022,0.0021,0
2489,-0.2329,0.0773,9.9221,0.0009,-0.0129,-0.0404,0
2510,-0.0287,-0.2531,10.181,0.0545,-0.0091,-0.0008,0
2530,0.0692,0.2025,9.7161,-0.0007,0.0383,0.0102,0
2550,0.1586,0.0341,10.0897,0.0491,-0.0105,0.0243,0
2570,0.1396,-0.0947,9.6075,0.0046,0.0207,-0.0565,0
2590,-0.0569,0.0727,9.4586,-0.0251,0.0273,-0.0463,0
2610,0.0139,0.2066,9.9161,-0.0023,0.0177,-0.017,0
2630,0.175,0.2236,10.1108,-0.016,-0.0192,-0.0094,0
2650,-0.0661,0.3875,9.648,0.0327,-0.0082,-0.0502,0
2670,-0.1472,0.0804,9.9154,-0.0054,-0.0476,-0.0195,0
2690,0.1804,-0.0826,9.652,0.0215,-0.0114,-0.0388,0
2710,-0.1674,0.1556,10.0285,0.0117,-0.052,-0.0345,0
2730,-0.276,0.2565,10.0197,-0.0552,0.0309,0.0013,0
2751,0.0463,0.1786,9.8823,-0.0223,-0.0385,-0.0171,0
2771,0.1147,0.1213,9.5831,0.0014,-0.0321,-0.036,0
2791,0.1949,0.2174,9.8897,-0.0107,-0.0088,0.0229,0
2811,0.1063,0.0444,9.474,0.0048,-0.016,-0.023,0
2831,0.1261,0.1103,9.8101,0.0169,0.0585,0.0406,0
2851,-0.1789,0.1433,9.6492,0.0325,0.0354,-0.0551,0
2871,0.0609,-0.323,9.8302,0.0099,-0.0072,0.0193,0
2891,0.092,-0.0066,9.8172,0.0036,0.0468,-0.0011,0
2911,-0.0978,-0.1018,9.839,0.018,0.0133,-0.0092,0
2931,0.0012,-0.1225,9.5015,-0.0184,-0.001,-0.0071,0
2951,0.1864,-0.1251,9.5746,0.007,-0.0275,-0.0014,0
2971,0.1408,0.1165,10.1659,0.0126,-0.0181,0.0044,0
2991,0.1922,0.1858,9.9773,0.003,0.0655,0.0382,0
3012,-0.0834,-0.082,9.8691,-0.0005,0.0142,-0.0045,0
3032,0.2446,-0.0734,9.502,0.0205,-0.0071,0.0365,0
3052,-0.0869,0.165,9.872,-0.0295,0.0023,-0.0094,0
3072,-0.2334,0.2591,9.8813,-0.0251,0.0041,0.0024,0
3092,-0.0195,0.1637,9.7226,-0.0062,-0.0015,-0.007,0
3112,-0.0156,0.2557,9.5739,0.0322,-0.0738,-0.0525,0
3132,-0.1361,0.0706,9.6778,-0.0426,0.0255,-0.0241,0
3152,0.0621,0.2246,10.0114,0.0304,0.0535,0.047,0
3172,0.39,0.0467,9.9622,0.0425,0.0086,-0.0259,0
3192,0.0803,0.1563,10.0055,0.0065,0.0135,0.0238,0
3212,0.1379,-0.083,9.924,-0.0315,-0.0247,-0.0651,0
3232,0.118,0.3276,9.6263,-0.0497,-0.0115,-0.0121,0
3253,-0.0955,0.3743,9.476,0.0633,0.0114,0.0128,0
3273,-0.1672,0.129,9.7969,-0.0363,0.0053,-0.0018,0
3293,-0.0236,0.3648,10.0031,-0.0152,-0.0052,0.0111,0
3313,0.0021,0.1742,10.0112,-0.0549,0.0316,-0.0749,0
3333,0.208,0.0844,9.604,-0.062,0.0054,-0.0309,0
3353,-0.1209,0.028,9.8763,0.0204,0.017,-0.0189,0
3373,0.0049,0.3977,9.6642,-0.0175,-0.0158,-0.0306,0
3393,-0.0003,0.0759,9.7553,0.0255,0.026,-0.0038,0
3413,-0.0463,0.0987,9.5549,-0.0103,-0.0311,-0.0545,0
3433,0.0871,0.2485,9.9511,0.0365,0.0,-0.0103,0
3453,0.038,0.1612,9.9111,-0.0098,0.0111,0.0581,0
3473,0.2201,0.0526,9.5732,0.0288,-0.0125,-0.0111,0
3493,0.0244,0.2503,9.747,-0.0298,0.0013,-0.0493,0
3514,-0.3095,-0.1528,9.4995,-0.0236,0.0205,0.0301,0
3534,-0.1625,0.0857,9.4709,-0.0287,0.021,-0.0179,0
3554,-0.0848,0.1049,9.5471,-0.0188,-0.0007,-0.0466,0
3574,-0.3954,0.0765,9.8131,-0.0494,-0.0122,-0.0061,0
3594,-0.1705,0.2329,9.707,-0.0305,0.0127,-0.0166,0
3614,0.1566,-0.0335,9.8185,-0.0294,0.0631,0.0034,0
3634,-0.2439,0.0811,9.7019,0.0581,0.0174,0.0007,0
3654,0.0809,0.5014,9.9662,-0.0041,0.0509,0.0153,0
3674,-0.2066,0.2151,9.7382,-0.012,0.0066,0.0045,0
3694,-0.0035,0.2585,10.029,0.0223,0.0096,0.0678,0
3714,-0.0007,0.0824,9.7135,-0.0138,-0.0674,-0.0207,0
3734,0.0411,0.3213,9.927,0.009,-0.005,-0.0412,0
3755,-0.2311,-0.153,9.7952,0.0198,0.0297,-0.0283,0
3775,0.1612,0.28,9.5628,0.0181,0.0083,0.0337,0
3795,-0.0723,0.061,10.1191,-0.001,-0.0025,-0.0508,0
3815,-0.1465,-0.0084,10.1616,0.0031,0.0016,0.0283,0
3835,0.0738,-0.0197,9.7946,0.0107,0.0525,0.0639,0
3855,-0.0036,0.0873,9.7642,0.0158,-0.0189,0.041,0
3875,-0.1149,0.2566,9.9973,0.0102,0.0309,-0.0135,0
3895,-0.0656,-0.0958,9.8032,0.0047,0.0488,0.0197,0
3915,-0.4562,0.3395,9.9484,-0.0282,0.0207,0.0263,0
3935,-0.032,-0.0609,9.8594,0.0168,-0.0265,-0.0132,0
3955,-0.0674,0.0435,9.8428,-0.0363,0.0188,-0.0329,0
3975,-0.073,0.011,9.6798,0.0008,0.0163,-0.0021,0
3995,-0.1214,0.1069,9.688,0.0043,0.046,0.0264,0
4016,0.0983,-0.0042,10.0202,-0.044,-0.0046,0.0398,0
4036,0.0679,0.0071,10.0993,-0.022,-0.0643,0.0027,0
4056,0.045,-0.0944,9.8422,0.0385,-0.029,-0.0065,0
4076,-0.1677,0.121,10.0649,-0.0246,-0.0056,-0.0037,0
4096,-0.1047,-0.1141,9.6545,0.0174,0.0004,0.0575,0
4116,-0.4492,0.0528,9.9168,-0.0358,0.0242,0.0056,0
4136,0.0677,-0.0598,9.759,-0.0417,-0.0029,0.0214,0
4156,0.2127,-0.0721,9.8147,0.0225,-0.0162,0.0346,0
4176,-0.3326,-0.0197,9.762,0.0334,-0.0244,-0.0078,0
4196,0.1586,-0.0378,9.7671,0.0004,-0.0047,-0.0193,0
4216,0.1871,0.1705,9.2871,0.0117,0.0053,0.0057,0
4236,-0.1444,0.0108,9.5522,0.0401,0.0077,-0.0232,0
4257,0.421,0.3101,9.4577,-0.0061,0.0205,-0.0153,0
4277,-0.1501,-0.0094,9.7139,0.0022,0.0086,-0.062,0
4297,-0.0761,0.071,9.5973,-0.0068,-0.0451,0.0306,0
4317,-0.04,0.0135,9.4629,-0.0224,-0.0399,-0.0266,0
4337,0.0841,0.0803,9.6053,-0.0454,-0.0118,0.0367,0
4357,-0.1346,0.0958,9.7668,-0.0261,-0.0106,-0.0287,0
4377,-0.0784,0.092,10.4052,0.0347,0.0429,-0.0409,0
4397,-0.2153,0.2019,9.7807,0.0488,-0.0261,-0.052,0
4417,0.018,0.1093,9.735,-0.0323,0.0162,-0.0668,0
4437,0.2149,0.1392,9.5309,0.0222,0.0483,0.0466,0
4457,-0.0334,0.2906,9.5914,-0.0072,0.0207,0.0232,0
4477,0.1095,0.052,9.9835,0.0457,0.029,0.0051,0
4497,-0.0573,0.3051,10.0944,-0.001,0.044,0.0416,0
4518,0.2414,0.1262,9.625,-0.0199,0.0131,-0.0273,0
4538,0.0114,-0.3297,9.8426,0.0061,0.0247,-0.0302,0
4558,-0.1697,0.1306,10.3212,-0.0445,0.0027,0.0046,0
4578,0.0153,0.3257,10.1882,0.0044,0.0568,-0.0167,0
4598,-0.0344,0.1952,9.8594,-0.0091,0.0115,0.0372,0
4618,-0.038,0.0815,9.6187,-0.009,-0.0212,0.0924,0
4638,0.0631,0.0134,9.6084,-0.0189,-0.0248,0.033,0
4658,-0.249,0.3613,9.382,-0.0238,-0.0147,0.0097,0
4678,-0.0301,0.1133,9.8061,0.0088,-0.0462,0.0017,0
4698,0.1723,-0.0879,10.1602,0.0023,0.0445,0.0498,0
4718,0.2089,0.1191,9.6704,-0.0064,0.0445,0.0023,0
4738,-0.1167,-0.0363,9.7532,0.0111,0.0278,0.0172,0
4759,-0.263,-0.2758,9.7947,-0.0028,0.0019,-0.0299,0
4779,0.2406,0.1019,9.8126,-0.0073,-0.0311,-0.0152,0
4799,-0.1456,0.1089,9.6284,-0.0207,-0.0169,0.015,0
4819,-0.0678,0.0449,9.7793,0.0323,0.0154,0.0356,0
4839,-0.1316,0.0458,9.8722,0.0681,-0.0116,-0.0057,0
4859,-0.0128,0.1219,9.9032,-0.072,-0.0001,0.0145,0
4879,-0.095,-0.0083,9.8783,-0.0074,-0.0386,-0.0306,0
4899,0.1345,-0.0794,9.65,-0.0052,-0.0295,0.0127,0
4919,0.1123,-0.1068,9.7973,0.0048,-0.0166,0.033,0
4939,-0.2091,0.0368,9.8725,0.0834,0.0334,0.0015,0
4959,-0.2448,0.1418,10.0187,0.0017,0.0068,-0.0045,0
4979,-0.1837,-0.2597,9.9151,-0.0104,-0.0225,-0.0137,0
5000,-0.1051,0.1784,9.6002,0.0183,-0.0107,-0.0136,0
