timestamp_ms,ax,ay,az,gx,gy,gz,label
0,-0.3565,-0.0758,9.7438,0.0251,-0.0528,0.0266,0
20,-0.1899,0.2788,10.1083,0.0038,0.0366,-0.0204,0
40,-0.1057,-0.0296,9.8556,-0.0429,-0.0425,-0.0547,0
60,0.0269,0.5347,9.7032,0.0122,0.0406,0.0236,0
80,0.1843,0.0313,10.0165,-0.0569,0.0004,-0.0486,0
100,0.1249,0.1999,9.74,-0.0418,-0.0224,0.0277,0
120,-0.2123,0.2286,9.7004,-0.0284,0.064,0.0277,0
140,-0.0669,0.0687,9.8966,0.0216,-0.0028,-0.0187,0
160,0.0137,-0.2032,10.1649,0.056,-0.0145,-0.0045,0
180,-0.0472,0.2344,9.9978,-0.0234,0.0364,0.0079,0
200,-0.0485,0.0644,9.9347,0.0529,-0.0592,-0.0246,0
220,-0.3101,0.221,10.4152,0.0019,-0.1011,-0.0553,0
240,-0.2075,0.178,9.6489,0.0094,0.0463,-0.0016,0
261,-0.0725,0.2474,9.644,-0.0026,-0.0335,0.0026,0
281,-0.5568,0.4811,9.842,-0.0079,0.0346,0.0544,0
301,0.1153,0.1017,10.1433,0.0176,0.0018,-0.0313,0
321,-0.2471,0.1156,9.6028,0.0296,-0.0466,0.0427,0
341,0.1236,-0.0998,10.196,-0.0354,0.0243,-0.0459,0
361,0.1078,0.1649,9.4934,-0.0076,-0.0164,-0.0538,0
381,-0.0979,0.2738,9.7833,0.0668,-0.0431,-0.012,0
401,0.1801,0.113,9.8482,0.0071,-0.0421,-0.0376,0
421,0.1338,0.275,9.6158,0.0115,-0.0693,-0.0543,0
441,-0.0556,0.168,9.6733,0.0467,0.0161,0.0778,0
461,-0.0759,-0.0344,9.9853,-0.02,-0.0374,-0.0181,0
481,0.1975,0.2562,10.1271,-0.0014,-0.0014,0.0925,0
502,0.0418,0.163,9.3448,0.0327,-0.0073,-0.0398,0
522,0.188,0.2221,9.8497,0.0496,-0.0377,-0.0683,0
542,-0.43,0.0979,9.7851,-0.0946,-0.0609,0.0517,0
562,0.0177,0.082,9.8336,-0.0295,0.1013,-0.0291,0
582,-0.2839,0.2283,9.7403,-0.0399,-0.0019,0.0056,0
602,-0.0046,0.1585,9.5261,-0.005,0.0729,-0.0542,0
622,0.1285,0.5104,10.1493,-0.0369,0.0466,-0.0015,0
642,0.313,0.3438,10.0651,0.0266,-0.0128,-0.0549,0
662,-0.1689,0.2981,9.7871,0.0069,0.0072,-0.003,0
682,-0.0946,0.1681,9.7026,0.0356,0.0061,-0.019,0
702,-0.0172,-0.1647,9.6759,0.0381,0.0738,0.0092,0
722,-0.1754,0.0546,9.2412,0.0272,0.0332,0.025,0
742,0.1761,0.0835,9.8878,-0.0134,-0.0323,0.0096,0
763,-0.0126,0.1505,9.9817,0.0042,0.0141,0.018,0
783,0.022,0.194,9.8403,-0.0184,0.0322,-0.0044,0
803,0.1116,0.3181,9.791,-0.0546,-0.047,-0.0174,0
823,-0.0129,0.2492,9.8393,0.0382,0.0198,0.0188,0
843,-0.1472,0.4087,9.6223,-0.0034,0.0538,-0.0045,0
863,-0.0113,0.1439,9.7001,-0.0601,-0.0343,-0.0029,0
883,-0.1541,0.2463,9.7734,0.0215,-0.0288,0.0159,0
903,0.0194,0.2619,9.9633,-0.009,0.0464,-0.0413,0
923,0.1794,0.2442,10.1133,-0.0824,-0.0142,0.0572,0
943,-0.2115,0.4307,9.7596,-0.0549,-0.0393,-0.01,0
963,-0.2758,0.3447,9.5801,-0.028,0.0353,0.005,0
983,0.0089,-0.0375,9.8178,0.0084,0.0231,-0.0018,0
1004,-0.1382,0.1794,10.2525,0.0315,0.0038,0.0261,0
1024,0.0057,0.1975,9.5993,0.0302,0.045,0.0136,0
1044,0.0577,0.5873,10.0049,0.0241,0.0478,-0.002,0
1064,-0.3859,0.1406,10.1039,-0.0014,-0.0033,0.058,0
1084,0.1242,0.0232,9.7308,0.0689,0.079,-0.1281,0
1104,-0.2105,0.2789,9.6558,0.028,0.0633,0.0497,0
1124,-0.004,0.2895,9.9365,0.0089,-0.0794,0.0368,0
1144,-0.1187,0.1867,9.8877,0.0227,-0.0412,-0.0734,0
1164,-0.0994,0.1604,9.9629,-0.016,-0.0902,0.0372,0
1184,0.3049,0.3708,10.2662,-0.0023,-0.013,0.0423,0
1204,0.0575,0.0464,9.8468,-0.0833,-0.0484,0.0225,0
1224,0.1628,0.1386,9.5477,-0.0155,-0.0326,-0.0624,0
1244,0.0272,0.106,9.8247,0.0704,0.0436,0.0273,0
1265,0.1116,0.3969,9.8631,0.0059,-0.0702,0.0403,0
1285,0.0751,0.2514,10.0888,0.0043,0.0052,-0.0229,0
1305,0.0458,0.0083,9.7667,0.0399,0.0049,0.0176,0
1325,0.1993,0.0264,9.72,0.0143,-0.0033,-0.0141,0
1345,0.0282,0.5372,9.5083,-0.0315,0.0052,0.0354,0
1365,0.4113,0.395,9.9304,0.0009,-0.0893,-0.0125,0
1385,0.1729,0.3515,10.5466,-0.0454,-0.0324,-0.0232,0
1405,-0.2051,0.2022,9.761,0.0073,0.0617,-0.0016,0
1425,-0.0318,0.4715,9.9094,-0.0335,-0.0479,-0.0537,0
1445,0.0715,0.0014,9.6895,0.0371,0.0667,-0.0055,0
1465,0.008,0.3355,9.5281,-0.0204,-0.0563,0.0145,0
1485,0.1236,0.1202,9.9055,-0.033,-0.0611,0.0348,0
1506,0.1435,0.1552,9.8162,-0.0045,-0.0381,0.01,0
1526,-0.2447,0.3306,9.2852,0.0146,0.0452,-0.0573,0
1546,0.2306,0.1742,10.1642,-0.0483,-0.0218,0.0541,0
1566,-0.0894,0.1218,9.9015,-0.0209,0.0138,0.0574,0
1586,-0.1073,0.1109,9.8263,0.0042,0.0029,0.0045,0
1606,-0.1078,-0.1575,9.7172,0.0535,-0.0022,-0.0301,0
1626,0.1455,0.3374,9.8992,-0.1011,0.051,-0.0213,0
1646,-0.0481,0.0188,9.9093,0.0246,0.0309,-0.0081,0
1666,-0.1194,0.5345,9.8983,-0.0153,-0.0457,0.0111,0
1686,-0.0763,0.1482,10.045,-0.0198,-0.011,-0.0122,0
1706,-0.323,0.4357,10.095,-0.0272,0.0697,-0.0343,0
1726,-0.1516,-0.1256,10.2512,-0.0146,0.0128,0.0409,0
1746,-0.2231,0.3317,9.6259,0.0248,-0.0603,0.0103,0
1767,-0.0485,0.3779,9.6838,-0.0215,-0.0575,-0.0421,0
1787,0.1196,0.4346,9.8895,0.0663,0.0356,0.0117,0
1807,0.0997,-0.075,9.6386,0.025,0.0281,0.0065,0
1827,0.2262,0.0735,9.674,0.0079,-0.0369,-0.0287,0
1847,0.1861,0.3038,9.9146,-0.0066,0.0299,0.0478,0
1867,-0.0951,0.2267,10.0082,0.0476,0.064,0.0054,0
1887,0.0034,0.2528,10.0907,0.0534,0.0583,-0.0087,0
1907,-0.0059,0.1351,9.7676,-0.0465,0.0642,-0.0033,0
1927,-0.3872,0.4791,9.9119,-0.0281,0.0222,0.0178,0
1947,-0.2191,0.6695,9.8634,0.0254,-0.0071,-0.0029,0
1967,-0.0301,0.2187,9.8139,0.0375,-0.0161,-0.0032,0
1987,-0.0311,0.2816,9.6305,-0.012,-0.0007,0.0426,0
2008,0.0922,0.2101,9.6025,-0.0297,-0.035,-0.0567,0
2028,0.0835,0.4311,9.9567,0.0031,-0.0144,-0.0501,0
2048,-0.3187,0.3492,9.6268,0.0591,0.051,0.0311,0
2068,0.0933,0.0081,9.4191,0.0016,-0.0644,0.0966,0
2088,0.0321,0.0897,9.803,-0.0506,-0.0616,0.0351,0
2108,0.1122,0.0183,10.1302,0.0044,0.0332,0.0746,0
2128,0.192,0.6851,9.1951,0.0313,-0.014,-0.0174,0
2148,-0.0257,0.3144,9.7466,-0.0041,-0.077,-0.0255,0
2168,0.2242,0.0928,9.9585,0.0503,-0.0025,0.0183,0
2188,-0.1601,0.0784,9.4088,0.0346,-0.0082,0.0381,0
2208,-0.1702,0.3449,9.7631,-0.0025,-0.0172,-0.0525,0
2228,0.0772,0.3629,9.5593,0.0017,0.0274,-0.0085,0
2248,-0.0664,0.3437,9.5884,-0.0737,-0.0533,-0.0011,0
2269,0.0471,0.1234,9.7215,0.0484,0.0005,-0.0272,0
2289,0.3587,0.2551,9.5629,-0.0132,-0.0084,-0.0225,0
2309,0.0708,0.22,9.5446,-0.016,0.0015,0.0337,0
2329,0.0382,0.0315,9.797,-0.022,-0.0693,0.0188,0
2349,-0.1565,0.0332,10.3,0.0183,-0.0209,0.0319,0
2369,-0.306,0.2742,9.9767,-0.0451,0.0008,0.0135,0
2389,-0.0131,0.2354,10.0323,-0.0394,0.0216,-0.0349,0
2409,0.192,0.2996,9.9854,-0.0021,0.0739,0.0169,0
2429,-0.0581,0.3424,9.6565,-0.0251,0.0322,-0.0381,0
2449,0.0723,0.4699,9.8784,0.0134,0.0184,-0.0125,0
2469,0.2568,0.0603,10.0515,-0.0236,0.0509,-0.0414,0
2489,0.2523,0.3134,9.9922,0.0638,-0.0122,-0.0244,0
2510,0.0772,0.3349,9.8528,0.0277,0.0622,0.0036,0
2530,0.0306,0.1438,9.9244,0.0272,0.0448,-0.0183,0
2550,-0.2734,0.2219,10.3518,-0.0242,-0.0178,-0.0353,0
2570,-0.1134,0.1484,9.9947,0.0962,0.077,0.0455,0
2590,-0.0505,0.5795,9.7407,-0.0176,0.0179,-0.0048,0
2610,-0.1534,0.2189,9.7937,-0.0286,0.0877,-0.0211,0
2630,0.0447,0.2813,9.5781,0.0283,0.0121,-0.0433,0
2650,0.3441,0.1525,10.3263,0.0078,-0.0225,-0.0749,0
2670,0.2732,0.1137,10.1629,-0.0327,-0.0307,-0.0089,0
2690,0.0439,-0.0344,9.8283,0.0878,-0.0142,-0.0551,0
2710,0.1403,0.398,10.2898,0.039,-0.0229,0.0285,0
2730,-0.1311,0.3383,9.9491,0.0002,0.0509,0.0012,0
2751,0.2635,0.1458,9.7152,0.096,-0.0012,0.0623,0
2771,-0.2812,0.0379,10.0094,0.0324,-0.0646,0.0089,0
2791,0.1643,0.2324,9.8977,-0.0005,0.0085,-0.0291,0
2811,0.0892,0.1104,9.9943,0.0913,0.005,-0.0752,0
2831,-0.1361,0.16,9.5088,0.0264,-0.0187,0.0323,0
2851,-0.0376,-0.0274,9.6317,0.0246,0.0107,-0.052,0
2871,-0.2042,0.2391,10.1375,-0.0155,-0.0018,-0.0163,0
2891,-0.1965,0.2427,10.1825,0.002,0.0254,0.067,0
2911,-0.2864,0.3971,10.1213,-0.0164,0.023,0.0244,0
2931,0.1382,0.1729,10.2981,0.0576,0.0146,0.0156,0
2951,0.217,0.14,9.937,-0.0644,-0.052,0.0378,0
2971,-0.3891,-0.0802,9.9216,0.0546,0.0848,0.0363,0
2991,0.3309,0.3982,9.6091,-0.0351,-0.0622,0.0632,0
3012,-0.0022,0.3607,9.6823,-0.0023,-0.0051,-0.0241,0
3032,0.0522,0.2052,9.3726,-0.0118,-0.0438,-0.0151,0
3052,-0.265,-0.0393,9.7393,-0.0208,0.0159,-0.0369,0
3072,0.2377,-0.0186,9.3571,0.0276,0.0055,-0.0013,0
3092,0.036,0.1015,10.0478,-0.0002,-0.0068,-0.0053,0
3112,0.205,0.3737,9.8954,-0.0267,0.0607,-0.0702,0
3132,0.2198,0.2523,9.3642,0.0062,0.0443,-0.0262,0
3152,0.2403,-0.0688,9.7682,-0.0278,-0.0131,0.0576,0
3172,-0.1167,0.2728,10.2429,-0.0215,0.0322,0.0098,0
3192,-0.0374,0.049,9.7824,-0.0599,0.0626,0.0286,0
3212,-0.1101,0.106,9.5904,-0.018,0.0441,-0.0048,0
3232,0.1611,0.3749,9.4172,0.0198,-0.0054,-0.0755,0
3253,0.0599,0.3378,9.4238,0.0015,-0.0636,-0.0051,0
3273,0.1924,0.3968,9.9278,0.0726,0.013,0.0417,0
3293,0.2003,0.1958,9.7145,0.1045,0.0267,-0.0474,0
3313,-0.3109,0.3589,9.7328,-0.0186,-0.0308,0.0299,1
3333,2.1577,-1.9956,10.1694,0.0788,0.0009,0.1476,1
3353,3.9785,-4.0206,10.6858,0.2692,-0.0033,0.4315,1
3373,5.5906,-6.1053,10.8968,0.3486,0.0555,0.6664,1
3393,7.5056,-8.0968,11.6825,0.4909,0.0742,0.8441,1
3413,9.1216,-10.3638,11.7411,0.5704,0.047,1.1651,1
3433,10.8524,-12.1745,12.3226,0.6541,-0.0034,1.253,1
3453,12.1507,-13.8395,13.1385,0.7599,0.0459,1.4526,1
3473,13.6412,-16.2238,13.4173,0.8882,0.026,1.6827,1
3493,14.7511,-18.1467,13.8937,0.9633,-0.003,1.8383,1
3514,15.6781,-19.9611,14.6132,1.1187,0.0837,1.9996,1
3534,16.6286,-21.0297,14.512,1.1129,-0.0295,2.1962,1
3554,17.7319,-23.1361,14.9014,1.3054,0.0242,2.447,1
3574,17.5764,-24.9129,15.1958,1.2702,0.0336,2.5742,1
3594,17.9092,-26.4254,15.4981,1.4353,-0.0115,2.8168,1
3614,17.885,-27.8947,15.6987,1.4967,0.0224,2.8857,1
3634,17.7509,-29.4692,16.2476,1.5254,0.0378,3.0781,1
3654,17.6439,-30.7815,16.597,1.5752,0.0098,3.2078,1
3674,17.0724,-31.9637,16.8801,1.6807,0.0189,3.2978,1
3694,16.197,-33.2215,17.0549,1.7884,0.0042,3.4001,1
3714,15.4538,-34.224,17.4751,1.8195,0.0319,3.4756,1
3734,14.3099,-35.053,17.4872,1.8537,-0.0092,3.6664,1
3755,12.8753,-36.16,17.5783,1.9957,-0.0125,3.7814,1
3775,11.2197,-36.2721,17.6298,1.9332,0.0008,3.7484,1
3795,10.1062,-37.263,17.6356,2.0449,0.0473,3.865,1
3815,8.3356,-38.1773,18.4171,2.0117,-0.0699,3.9099,1
3835,6.5631,-38.8367,18.038,2.0261,-0.0364,4.0042,1
3855,4.655,-38.847,18.0604,2.0647,0.091,4.0033,1
3875,2.999,-38.8223,18.2205,2.1256,0.011,4.0923,1
3895,1.0213,-38.9684,18.2752,2.0519,-0.0163,4.0355,1
3915,-1.0012,-39.0767,18.697,2.1182,0.0318,4.0014,1
3935,-3.0856,-39.0537,18.2401,2.0623,-0.0314,4.0207,1
3955,-4.5467,-38.886,18.8434,2.0576,-0.0841,4.0021,1
3975,-6.4502,-38.4631,18.2058,2.087,0.0142,4.0032,1
3995,-8.2591,-38.1309,18.5484,2.1342,-0.0292,3.9216,1
4016,-10.4351,-37.4704,18.173,1.9813,0.0041,3.8974,1
4036,-11.5027,-36.5023,17.9131,2.0113,0.0132,3.7804,1
4056,-12.948,-36.1193,18.0155,1.9291,0.0057,3.7217,1
4076,-14.2784,-35.0066,17.7276,1.8763,-0.0684,3.6129,1
4096,-15.1333,-34.0151,17.4109,1.8864,0.0011,3.511,1
4116,-16.0694,-33.2854,17.5506,1.7528,0.0178,3.4863,1
4136,-16.8649,-32.0871,16.6801,1.6784,-0.056,3.2874,1
4156,-17.3102,-30.496,16.3,1.6761,-0.0608,3.1735,1
4176,-18.0363,-29.5206,16.0803,1.6498,-0.0428,3.0915,1
4196,-18.0869,-27.9461,16.3065,1.5399,0.0299,2.9333,1
4216,-17.9408,-26.0705,15.9148,1.3733,-0.0799,2.8144,1
4236,-17.8117,-24.6879,15.1384,1.3205,0.0332,2.6057,1
4257,-17.1139,-23.2044,14.3787,1.296,0.0157,2.3927,1
4277,-16.6883,-21.3575,14.4798,1.2283,-0.0103,2.3224,1
4297,-15.5222,-19.7464,13.9172,1.079,-0.0592,2.0805,1
4317,-14.9066,-17.7241,13.6342,0.9486,-0.0319,1.8623,1
4337,-13.1713,-16.3954,13.1025,0.9367,0.0313,1.6768,1
4357,-11.8522,-14.1259,12.562,0.7645,0.0503,1.4829,1
4377,-10.7586,-12.5095,12.9032,0.6377,-0.0413,1.2633,1
4397,-8.9376,-10.1032,11.9037,0.5235,0.0457,1.0111,1
4417,-7.5147,-8.1436,11.9238,0.3977,0.0274,0.9217,1
4437,-5.4746,-5.8016,11.118,0.4486,-0.0003,0.6437,1
4457,-3.839,-3.8461,10.4679,0.2809,-0.0295,0.4381,1
4477,-2.1459,-1.9848,10.376,0.0859,-0.0233,0.2988,1
4497,-0.6359,0.1269,9.724,0.0693,0.0729,-0.0273,1
4518,-0.0484,0.2685,9.7644,0.0213,0.0071,0.0262,1
4538,0.0502,0.0969,9.8419,0.019,0.0532,-0.0317,1
4558,0.2395,0.1942,9.6313,-0.0287,0.0097,0.0128,1
4578,0.0066,0.437,9.4534,-0.0206,-0.0181,0.0081,1
4598,0.1805,0.0508,9.7987,-0.0017,0.0234,0.0316,1
4618,-0.0817,0.1194,10.0221,-0.0786,0.0863,0.0483,1
4638,-0.0607,0.1447,9.6116,-0.0195,-0.0258,-0.0232,1
4658,0.1897,0.7685,9.8439,0.0002,0.0366,0.0567,1
4678,-0.4436,0.3095,10.1412,0.0524,0.0076,0.0595,1
4698,0.0023,0.4038,9.7903,-0.0247,-0.058,-0.01,1
4718,-0.072,0.3383,9.8289,0.0325,-0.0589,-0.0003,1
4738,0.2449,0.3504,9.8221,-0.0824,-0.0181,-0.0198,1
4759,-0.0951,0.2852,9.6599,0.0467,0.0139,-0.0122,1
4779,0.093,0.2657,9.5915,-0.036,0.0351,-0.0481,1
4799,0.1659,-0.0611,9.5924,0.0052,-0.0628,0.0311,1
4819,-0.2687,0.2644,9.891,0.0163,0.0261,-0.082,1
4839,-0.0251,0.1805,9.9767,0.0084,-0.0047,-0.0279,1
4859,-0.0777,0.2982,9.9871,-0.0043,0.0001,-0.0018,1
4879,0.1703,0.1872,9.7267,-0.0497,0.0235,0.052,1
4899,0.1215,0.3374,10.0505,-0.0356,0.0698,-0.0218,1
4919,-0.042,0.3692,9.8776,0.0399,0.0121,0.0171,1
4939,-0.1885,-0.3242,9.8256,-0.0239,-0.0543,-0.0032,1
4959,0.1869,0.1219,9.0753,-0.0041,-0.0075,0.0378,1
4979,-0.0122,-0.1343,9.6302,-0.0597,0.0341,0.015,1
5000,-0.2913,0.243,9.4754,0.0343,0.0354,0.0332,1
