timestamp_ms,ax,ay,az,gx,gy,gz,label
0,-0.3133,-0.0968,9.9507,0.0654,0.0063,-0.0009,0
20,-0.1165,0.0633,9.9797,-0.012,0.0215,-0.0199,0
40,-0.2364,0.1702,9.72,-0.005,-0.0152,0.0111,0
60,0.2661,-0.0588,9.5689,-0.0268,-0.0181,0.0359,0
80,0.1103,0.6165,9.8501,-0.025,-0.0189,-0.0085,0
100,-0.1,0.0196,9.9151,-0.006,-0.0203,-0.0089,0
120,0.1287,0.069,9.8441,0.03,0.0203,0.0035,0
140,-0.4476,-0.009,9.9934,-0.017,-0.0239,-0.0593,0
160,-0.1765,-0.1228,9.6362,0.0296,-0.043,-0.0311,0
180,0.1164,-0.0247,9.6338,-0.0114,0.0147,-0.0172,0
200,-0.1853,0.0117,9.6518,0.0333,0.0134,0.0353,0
220,-0.1039,0.1617,9.5898,-0.074,0.0574,0.0122,0
240,0.1506,0.1148,9.7268,-0.019,0.0745,-0.0315,0
261,0.0621,-0.0942,9.7417,0.0305,0.0456,0.0102,0
281,-0.1977,0.173,9.8433,0.0138,0.0201,0.0031,0
301,-0.0585,0.1121,9.9894,-0.0038,-0.0006,-0.0154,0
321,-0.0999,0.2951,9.8839,0.0093,-0.0228,-0.0185,0
341,-0.1109,0.4239,9.5238,0.0137,0.0667,0.071,0
361,-0.0955,0.2044,9.9709,-0.0011,0.0117,-0.0534,0
381,0.1962,0.2107,9.5877,-0.009,0.0436,-0.0167,0
401,-0.128,-0.0234,9.3903,0.0277,-0.0015,0.0244,0
421,0.1889,0.0777,9.9748,0.0262,0.0153,-0.026,0
441,0.1379,-0.2976,10.0121,0.0314,0.0058,-0.0164,0
461,0.1541,0.0235,10.0826,0.0634,-0.0201,-0.0356,0
481,0.0842,0.1806,9.8643,0.0095,0.0164,0.0076,0
502,0.0851,0.3567,10.1051,0.0638,0.0677,0.011,0
522,0.0338,0.0592,9.4866,0.0484,-0.0158,-0.0325,0
542,-0.0833,0.0545,9.7377,0.0496,-0.0063,0.0433,0
562,0.2529,0.0317,9.992,0.0147,-0.055,-0.0289,0
582,-0.0659,-0.0458,9.8089,0.0301,0.0185,0.0137,0
602,-0.0171,-0.0543,9.9105,0.0512,0.0179,-0.0385,0
622,0.1071,-0.0407,9.9057,-0.032,0.017,0.0166,0
642,0.0746,0.3012,9.9886,-0.0008,-0.0081,0.0155,0
662,-0.2043,0.0688,10.1965,0.0086,-0.0119,-0.0219,0
682,-0.0282,-0.0817,9.9089,0.0364,0.0057,0.0113,0
702,-0.0314,-0.0645,9.9327,0.0219,0.0156,0.0104,0
722,0.2089,-0.21,9.6281,0.028,-0.0004,-0.0069,0
742,0.0758,0.0424,9.722,0.0155,-0.0142,0.0248,0
763,0.2824,-0.0046,9.8425,0.0086,-0.0476,-0.0267,0
783,-0.0139,0.1267,9.7789,-0.0475,0.0291,0.0372,0
803,-0.0084,0.2191,9.5786,-0.0126,0.004,0.0163,0
823,-0.0131,-0.029,10.0101,0.0267,-0.0425,-0.0382,0
843,0.0727,0.0634,9.7085,0.001,0.0187,0.0167,0
863,0.4389,0.2678,9.8056,-0.0444,0.0199,-0.0064,0
883,0.0168,-0.0115,9.559,-0.0147,-0.0146,-0.0175,0
903,-0.1422,-0.0993,9.9428,0.0606,-0.0312,0.0231,0
923,0.0524,0.1674,9.7659,-0.044,0.0314,0.0314,0
943,-0.1072,0.2826,9.9297,-0.0677,-0.0147,-0.0699,0
963,-0.0878,0.2732,9.2628,0.0342,-0.0707,-0.0016,0
983,0.0308,-0.0129,9.658,-0.0036,-0.0021,-0.004,0
1004,0.2913,-0.0737,9.9839,0.0173,0.0043,-0.0159,0
1024,-0.0461,0.0598,9.798,0.0267,0.0033,0.0058,0
1044,0.0482,0.1042,10.2385,-0.0389,-0.0215,0.0312,0
1064,-0.0032,0.0969,9.8722,0.027,0.0018,-0.0389,0
1084,0.1073,0.0076,9.9866,-0.0628,0.0211,-0.0224,0
1104,-0.3656,0.2877,9.9487,0.0102,-0.064,-0.0219,0
1124,-0.0452,0.3132,9.6732,0.0243,0.0163,0.0172,0
1144,-0.0204,-0.1182,9.7542,0.0045,0.0255,-0.0171,0
1164,0.0401,-0.0535,9.945,-0.0388,-0.0102,0.0229,0
1184,0.1231,0.0616,9.8982,-0.0001,-0.0402,0.0275,0
1204,0.2193,0.0818,9.4618,0.0488,0.027,-0.0064,0
1224,0.0163,0.1775,10.0108,0.0165,0.0387,0.0055,0
1244,0.2459,0.0383,9.8408,-0.0178,-0.0336,-0.004,0
1265,0.1291,0.0652,9.4276,-0.0006,-0.0051,0.061,0
1285,0.1827,-0.2769,9.6854,0.0289,-0.0295,-0.0287,0
1305,0.0683,0.294,9.9451,0.0471,-0.0187,-0.0451,0
1325,0.0543,-0.1867,9.6855,-0.0529,-0.0014,-0.0781,0
1345,0.2211,-0.1864,9.6991,0.0343,0.0278,0.0065,0
1365,0.0709,-0.1552,9.9582,0.0302,0.0184,0.0071,0
1385,0.0845,-0.0402,9.6719,-0.028,0.0042,-0.034,0
1405,-0.1462,0.2622,9.9448,0.0151,0.0663,-0.0228,0
1425,0.0012,0.262,9.5676,-0.0076,-0.039,0.0297,0
1445,-0.0518,0.0126,9.9702,-0.0265,-0.017,0.0247,0
1465,0.1528,-0.1429,10.0373,-0.004,0.0032,-0.0072,0
1485,0.0869,0.1541,9.8443,-0.0421,-0.0093,-0.0136,0
1506,0.1152,0.0456,9.8107,0.0024,-0.0062,-0.0116,0
1526,0.0214,0.234,9.5994,-0.0138,0.0259,0.025,0
1546,0.0358,-0.1002,9.9995,-0.0081,-0.0265,0.0365,0
1566,0.1944,0.05,9.8347,-0.0093,0.0533,0.0602,0
1586,0.3836,0.2132,10.0379,-0.0054,-0.0274,0.0677,0
1606,0.0877,0.2499,9.9224,-0.0221,-0.0222,0.0348,0
1626,0.201,0.3245,10.0934,-0.076,0.0341,0.0725,0
1646,0.6354,0.3267,9.9858,0.0587,0.0364,0.0942,0
1666,0.1971,0.0748,10.0028,0.0518,-0.0097,0.0746,0
1686,0.5884,0.2514,9.8666,0.0219,0.0373,0.1008,0
1706,0.1795,0.2596,9.7464,-0.0117,-0.0272,0.092,0
1726,0.393,-0.0975,9.8025,0.0236,-0.0572,0.0964,0
1746,0.6598,0.1963,9.7293,-0.0524,0.0297,0.0951,0
1767,0.4893,0.0644,9.9173,0.0277,-0.0454,0.1079,0
1787,0.5529,0.2025,9.5042,-0.0158,-0.0004,0.1407,0
1807,0.3784,0.1776,9.8788,-0.0398,0.0571,0.1437,0
1827,0.5414,0.2692,9.8501,0.0348,-0.0284,0.1987,0
1847,0.4792,0.2012,9.8409,0.0152,-0.0388,0.1596,0
1867,0.5582,0.0535,9.6521,-0.0145,-0.0286,0.1863,0
1887,0.9168,0.1319,9.5521,-0.0015,-0.0369,0.2062,0
1907,0.629,-0.0327,9.6583,-0.0279,-0.0332,0.1837,0
1927,0.9175,0.3063,9.7984,0.0156,-0.0461,0.2064,0
1947,0.8871,0.2446,9.7922,0.0143,0.0291,0.1452,0
1967,0.7641,-0.1034,9.7738,0.0111,-0.0505,0.2668,0
1987,0.7821,0.1539,9.8072,-0.0644,0.0195,0.2518,0
2008,1.0957,0.3414,9.6304,0.0071,-0.0495,0.3347,0
2028,1.1381,0.2207,9.8491,-0.0337,0.0046,0.2542,0
2048,1.2524,0.1725,9.4294,0.0268,0.0266,0.2849,0
2068,1.0632,0.2042,10.0433,-0.002,-0.0011,0.3014,0
2088,1.042,0.1223,9.7435,0.0657,-0.0364,0.2848,0
2108,0.8504,-0.0169,10.1063,-0.0167,-0.0014,0.2411,0
2128,1.1662,0.036,9.7777,-0.0421,-0.0161,0.3561,0
2148,0.9689,-0.0091,9.8923,-0.0255,-0.0056,0.2917,0
2168,1.1228,0.1633,10.1508,0.0003,-0.0387,0.293,0
2188,1.1822,0.3038,9.8732,-0.0326,0.0108,0.3135,0
2208,1.0918,0.2784,9.671,-0.0716,-0.0083,0.3642,0
2228,1.4959,-0.0828,10.0016,0.0192,0.0229,0.3444,0
2248,1.69,-0.0371,9.872,0.0623,0.0311,0.3501,0
2269,1.5426,0.0075,9.582,0.0416,0.0105,0.3208,0
2289,1.5512,0.1326,9.5311,-0.0107,-0.0097,0.3765,0
2309,1.4137,-0.0422,9.659,-0.0172,-0.0231,0.3275,0
2329,1.503,0.2391,10.1154,-0.0016,-0.0262,0.2963,0
2349,1.4894,-0.104,9.8397,0.0342,0.01,0.3382,0
2369,1.3048,0.2268,9.7985,-0.0173,0.0155,0.3424,0
2389,1.5751,0.19,10.0562,-0.0062,-0.004,0.3153,0
2409,1.2952,-0.1046,10.1741,0.0673,-0.0004,0.3286,0
2429,1.5802,0.084,9.8201,0.0041,-0.0416,0.3269,0
2449,1.5344,0.0209,9.9461,0.0426,0.0043,0.3866,0
2469,1.3695,-0.0718,9.9494,0.0098,-0.0138,0.3367,0
2489,1.216,0.2058,10.0366,-0.0014,0.0348,0.3691,0
2510,1.5286,0.1443,9.7913,-0.0007,0.0097,0.3724,0
2530,1.2501,-0.0206,10.0557,-0.0437,-0.0091,0.377,0
2550,1.4665,0.3756,9.4865,0.0129,0.0118,0.3687,0
2570,1.4465,0.0557,9.8851,0.0152,0.0564,0.3573,0
2590,1.4081,-0.039,9.6283,-0.0323,0.0262,0.2747,0
2610,1.4206,0.1257,9.703,0.0347,-0.0171,0.291,0
2630,1.3295,0.3545,10.1097,0.0033,0.0153,0.317,0
2650,1.2215,-0.0781,9.738,-0.0079,0.087,0.3225,0
2670,1.4375,0.1194,9.8119,0.0455,0.0263,0.3175,0
2690,1.6577,0.0686,9.7633,-0.044,-0.0038,0.3391,0
2710,1.4858,0.1501,9.8353,0.0135,0.0373,0.3352,0
2730,1.4198,-0.0466,10.0189,0.0196,-0.0539,0.2826,0
2751,1.2194,0.1685,9.7875,0.0083,-0.0315,0.3486,0
2771,1.7222,0.1537,10.011,-0.0164,-0.0565,0.3281,0
2791,1.3447,0.2319,9.9253,0.0657,-0.0475,0.3054,0
2811,1.287,0.1702,9.5652,0.0217,0.0004,0.3094,0
2831,1.3421,0.2462,9.897,-0.0278,-0.0414,0.3389,0
2851,1.0328,0.1659,10.0571,-0.019,-0.0302,0.3011,0
2871,1.2066,0.2526,9.8203,-0.0546,-0.0515,0.3093,0
2891,1.28,0.2205,9.8624,-0.0048,0.0139,0.2454,0
2911,1.1311,0.1767,9.914,0.062,-0.0368,0.2759,0
2931,0.8447,0.1937,10.0314,-0.0425,0.0262,0.2589,0
2951,1.1834,0.1552,10.1036,0.0093,-0.0041,0.2487,0
2971,0.9931,-0.0072,10.0006,-0.0105,0.0419,0.2528,0
2991,1.2007,0.1171,9.8427,0.0096,-0.0107,0.2588,0
3012,0.9658,0.0126,9.9627,0.0111,0.026,0.249,0
3032,0.8063,0.1834,9.9984,0.0053,0.0062,0.2446,0
3052,0.9366,-0.2678,9.6101,-0.0429,0.0182,0.1542,0
3072,0.8908,0.0497,9.3392,-0.0251,0.0285,0.2279,0
3092,0.9897,-0.095,9.4654,-0.0122,0.0055,0.2262,0
3112,0.875,0.0966,9.7674,0.0035,0.0114,0.1652,0
3132,0.6479,-0.0449,9.8595,0.0407,0.0168,0.2094,0
3152,0.8178,0.3741,9.6047,0.065,-0.0484,0.213,0
3172,0.8352,-0.0849,9.8835,-0.0035,0.0111,0.1772,0
3192,0.5238,0.0335,9.8357,-0.0131,0.0251,0.1555,0
3212,0.642,0.3447,9.7015,0.0045,-0.0025,0.1525,0
3232,0.3994,0.2841,9.9516,0.0084,-0.0406,0.113,0
3253,0.7619,0.2801,9.5309,0.0556,0.015,0.1199,0
3273,0.6504,-0.1602,9.8402,-0.0433,-0.0421,0.1315,0
3293,0.3777,0.0665,10.1215,0.0212,-0.0505,0.1543,0
3313,0.3245,-0.0583,9.7699,0.0346,0.0349,0.1256,0
3333,0.3556,0.1694,9.9638,-0.0275,0.0157,0.0342,0
3353,0.3118,0.2125,9.9573,0.039,-0.024,0.0502,0
3373,0.2434,0.2988,9.738,-0.0302,0.0127,0.0524,0
3393,0.2262,0.1088,9.5359,-0.0445,-0.0059,0.072,0
3413,0.0194,0.0006,9.6889,-0.0069,0.0242,0.049,0
3433,-0.0293,-0.0097,9.8723,0.023,0.0916,0.1219,0
3453,-0.0659,0.101,10.021,-0.0572,-0.0266,0.045,0
3473,0.0909,0.171,9.4872,-0.0521,-0.0105,0.0281,0
3493,0.1854,0.2144,9.6514,0.0322,-0.0354,0.0205,0
3514,0.3493,0.1418,9.8151,-0.0046,0.0314,0.0057,0
3534,0.2558,-0.0871,9.643,0.0113,-0.0069,0.0353,0
3554,-0.1283,0.1232,10.0984,0.0176,-0.0067,-0.0068,0
3574,0.1921,0.1566,9.7821,-0.0441,-0.0128,-0.0336,0
3594,0.0244,-0.2821,9.8639,-0.0175,-0.0175,0.0136,0
3614,0.0913,0.1321,9.6428,-0.0012,-0.0157,0.0319,0
3634,0.2578,0.0984,9.9541,-0.0268,-0.0116,0.0051,0
3654,0.2057,0.2198,9.6263,-0.0119,0.0236,-0.0101,0
3674,-0.0969,-0.0226,9.8997,0.0279,0.0279,0.0775,0
3694,-0.0483,0.0859,10.1301,-0.0617,0.0047,-0.0366,0
3714,-0.0134,0.051,9.9752,0.0049,0.0432,0.0001,0
3734,0.0284,0.1239,9.8485,-0.0314,0.0189,0.0211,0
3755,0.0675,-0.0421,9.6532,-0.0085,-0.0189,-0.0032,0
3775,0.2436,0.2335,9.6672,-0.0076,0.0263,0.0028,0
3795,-0.0179,-0.1325,9.8985,0.0033,0.0281,-0.0086,0
3815,-0.0591,0.1705,9.8386,-0.0022,0.0051,0.0182,0
3835,0.0283,0.5142,9.9916,0.009,-0.0084,0.0064,0
3855,-0.0888,0.0674,9.8013,0.0185,-0.0404,0.0104,0
3875,0.2458,0.2881,9.9169,-0.0471,-0.0141,-0.0201,0
3895,-0.1788,0.0292,9.8301,-0.0105,-0.0556,0.0146,0
3915,-0.3342,0.346,9.9395,-0.0236,-0.0106,-0.05,0
3935,-0.1366,0.0703,9.7489,-0.052,0.0014,0.0182,0
3955,-0.3324,0.116,9.5177,-0.0296,0.0326,0.0789,0
3975,0.0541,0.1171,10.0091,0.0306,-0.0159,0.0144,0
3995,-0.2026,-0.0965,9.7825,-0.0076,0.0076,-0.0008,0
4016,0.3339,0.1891,10.0815,0.0154,0.0343,0.0185,0
4036,0.0344,0.091,9.8309,0.013,-0.0341,0.0021,0
4056,-0.0496,0.0739,9.8162,-0.0271,0.017,0.0504,0
4076,-0.1936,-0.2199,10.0765,0.0162,-0.0498,0.0369,0
4096,0.0307,0.3653,9.6801,-0.0331,-0.0286,-0.0057,0
4116,0.2831,0.4647,9.723,0.0217,-0.0258,-0.0282,0
4136,-0.3048,-0.3081,9.8978,-0.0178,-0.0207,0.0066,0
4156,0.1292,0.1202,9.6405,-0.04,-0.0215,0.0065,0
4176,-0.1346,0.124,10.1686,0.0042,0.0102,0.0123,0
4196,0.1829,0.3862,9.747,-0.0212,-0.0063,0.0328,0
4216,-0.124,-0.0138,9.7721,0.0189,-0.031,0.0549,0
4236,0.2437,0.3298,10.0821,0.0213,-0.0456,-0.0108,0
4257,0.0951,-0.0331,9.8228,-0.0896,0.0204,-0.0412,0
4277,-0.1631,0.0891,9.6446,0.1033,0.0287,-0.0308,0
4297,-0.1512,0.2672,10.0048,-0.0385,-0.0003,-0.0204,0
4317,-0.0352,0.1819,9.9831,0.0215,-0.0839,0.032,0
4337,-0.1687,0.1077,9.5867,-0.0136,-0.0153,-0.0544,0
4357,-0.257,0.1487,9.6711,0.0099,-0.0204,0.0044,0
4377,0.197,0.2774,9.612,-0.0187,-0.0156,-0.0364,0
4397,-0.3101,0.0839,9.0698,0.0442,0.0394,-0.0055,0
4417,0.2588,0.1567,10.2327,-0.043,0.0201,-0.0143,0
4437,-0.068,0.3049,9.5282,0.031,0.0238,-0.0525,0
4457,0.0729,0.1143,9.6444,-0.0574,0.0318,0.0178,0
4477,0.3692,0.0277,9.909,0.0029,-0.0119,-0.0286,0
4497,0.1094,0.2147,9.878,-0.0416,-0.0101,0.008,0
4518,-0.1036,0.294,9.9417,0.0214,0.0025,0.0561,0
4538,0.2855,0.2927,9.8676,0.0103,-0.0171,-0.0287,0
4558,-0.2953,0.2117,10.1156,0.0158,-0.0177,0.0173,0
4578,0.0357,0.3521,9.6942,-0.0081,0.0252,-0.0222,0
4598,0.206,0.1278,10.1615,-0.0079,0.0175,-0.0468,0
4618,-0.075,0.0258,9.7289,-0.0041,-0.0624,0.0484,0
4638,-0.1669,-0.1217,9.5568,-0.0352,-0.0057,0.0053,0
4658,-0.199,-0.0576,9.7333,0.0773,0.0353,0.0114,0
4678,-0.0158,0.1746,9.9122,-0.0239,0.0235,-0.0422,0
4698,-0.319,0.1747,10.0632,-0.012,0.0033,-0.0211,0
4718,-0.3066,0.332,9.9467,0.0096,0.0459,-0.0141,0
4738,-0.1036,0.2058,9.5722,-0.0134,-0.0122,-0.0019,0
4759,-0.0715,0.1678,9.6366,0.0086,-0.0071,0.0258,0
4779,0.0511,0.0102,9.6967,-0.0555,-0.0619,0.0145,0
4799,-0.0524,0.2893,9.8625,-0.0011,-0.0004,-0.0137,0
4819,-0.1103,0.4874,10.0149,-0.0282,0.0561,-0.0237,0
4839,0.201,0.0492,9.8409,0.0121,-0.0004,-0.0116,0
4859,0.0567,-0.0179,9.4836,0.0459,0.0063,-0.0054,0
4879,0.2973,-0.0078,10.0812,0.0568,-0.0054,-0.0142,0
4899,-0.0029,0.3634,9.6837,-0.0136,0.0136,-0.0067,0
4919,-0.2631,0.2212,10.0639,-0.0752,-0.0198,0.0343,0
4939,-0.1114,0.1136,9.7432,0.0098,0.0534,-0.0163,0
4959,-0.1907,0.191,9.7697,-0.0112,0.0326,-0.0262,0
4979,0.0212,-0.157,9.8799,-0.0281,0.0212,0.0107,0
5000,0.0256,0.3749,9.991,0.0077,0.0352,-0.0227,0
