timestamp_ms,ax,ay,az,gx,gy,gz,label
0,0.0776,0.1635,9.7607,0.0937,0.0469,0.0465,0
20,0.0426,0.1901,9.7636,0.0058,0.0007,-0.0059,0
40,0.1381,0.1242,10.3018,-0.0418,0.0319,0.0012,0
60,0.0968,0.2162,9.988,0.0339,0.0287,-0.0602,0
80,0.1292,0.1933,10.3557,0.0746,0.0216,0.0407,0
100,0.2432,0.0486,9.7007,-0.0129,-0.0129,0.0251,0
120,0.1591,0.5029,9.7913,0.0336,0.0069,0.0223,0
140,-0.0289,-0.0677,9.5169,0.0491,-0.0235,-0.0325,0
160,-0.2021,0.3293,9.6319,0.0407,0.0005,-0.0309,0
180,0.3002,0.1818,10.2284,0.005,-0.0467,0.0089,0
200,-0.0428,0.5421,9.6952,-0.0279,-0.0316,-0.0278,0
220,-0.0852,0.2614,10.2322,-0.0033,-0.0113,0.0174,0
240,-0.3126,0.1352,9.5365,0.0183,-0.0377,-0.0864,0
261,0.0609,0.1554,9.5782,0.0363,-0.0202,-0.0195,0
281,0.0268,0.2072,9.7349,0.0134,-0.0066,0.0719,0
301,-0.2727,-0.0057,9.796,-0.0152,0.0161,0.0176,0
321,0.0816,0.062,10.0131,0.0222,0.038,0.0067,0
341,-0.0897,-0.1213,9.9092,0.0344,-0.0186,0.0794,0
361,0.4843,0.0339,9.7184,0.0152,0.0534,-0.0934,0
381,-0.1025,0.2169,9.7807,-0.0334,0.0375,-0.0326,0
401,-0.0783,0.254,9.7398,-0.0073,0.0202,-0.016,0
421,-0.1575,-0.1563,9.6088,0.0379,0.0061,0.0343,0
441,0.23,0.1753,9.6146,-0.0553,0.0128,0.035,0
461,-0.0671,0.3014,10.0361,-0.0837,0.0475,-0.0346,0
481,-0.1305,0.1707,9.4078,0.0603,0.0489,0.0399,0
502,0.1273,0.0859,10.1658,0.0205,0.0534,-0.0161,0
522,-0.2485,0.1258,9.7345,0.0243,0.0017,0.0485,0
542,0.1125,0.1027,9.64,-0.0431,0.0222,-0.0413,0
562,0.3207,0.0854,9.9727,0.0295,0.0537,-0.0049,0
582,0.102,0.2313,10.1367,0.011,-0.0249,-0.0196,0
602,0.1148,0.6154,10.0559,-0.0634,-0.0127,0.0422,0
622,0.1566,0.0661,9.9204,0.057,0.0006,-0.0209,0
642,0.3077,0.1427,10.0491,0.0063,0.036,-0.0017,0
662,0.2178,0.1907,9.4324,-0.0158,0.0366,0.0203,0
682,0.0791,0.0763,9.6952,-0.0151,-0.0092,0.0218,0
702,0.1627,0.3977,9.6095,-0.0806,-0.0603,0.0355,0
722,-0.1595,-0.2268,10.0794,0.0237,0.0098,0.0084,0
742,0.1397,0.1044,9.7256,0.0105,-0.0367,-0.0167,0
763,-0.181,0.3473,9.996,-0.0078,-0.0596,-0.014,0
783,-0.0661,0.1471,9.9279,0.0511,-0.0506,0.001,0
803,-0.5549,0.0522,9.6203,-0.0554,0.0131,0.01,0
823,0.0723,0.2793,9.6809,-0.0239,0.0544,-0.0059,0
843,-0.1159,0.3631,10.0946,-0.034,0.0016,0.0008,0
863,0.2,0.2379,9.6394,-0.0112,0.0085,-0.0607,0
883,0.0702,0.0558,9.8375,0.0027,0.0473,0.0267,0
903,0.2023,0.2821,9.6378,0.0172,-0.0618,0.0072,0
923,-0.195,0.1276,9.7409,-0.0139,0.0208,0.0401,0
943,0.1869,0.3341,9.7998,-0.0351,-0.0005,0.0,0
963,0.3791,0.467,9.6378,0.0674,0.0226,-0.0695,0
983,0.1375,-0.269,9.5987,0.0965,-0.0193,-0.0143,0
1004,0.1423,0.22,9.873,0.0057,-0.0327,-0.008,0
1024,0.0305,-0.1124,9.6242,-0.0303,0.0056,0.0297,0
1044,-0.0944,0.6395,9.6317,0.059,0.066,-0.0828,0
1064,0.137,0.1157,9.6034,-0.0579,0.0344,0.0016,0
1084,-0.2711,0.3343,9.7929,-0.0134,-0.0203,0.0205,0
1104,-0.0752,0.1936,10.0176,-0.0278,-0.0536,-0.0265,0
1124,-0.3188,0.0554,10.1414,-0.0464,-0.0673,0.003,0
1144,-0.1267,0.034,9.6503,-0.0112,0.0526,-0.0251,0
1164,0.1156,0.4854,10.2831,-0.0346,-0.0382,-0.0292,0
1184,0.091,0.3721,9.589,0.0005,-0.013,-0.0163,0
1204,0.0092,0.5498,10.0484,0.0011,0.0528,-0.0284,0
1224,0.0307,0.21,9.6512,-0.0249,-0.0646,0.0273,0
1244,-0.3395,0.2518,9.6184,-0.0148,0.0597,-0.0294,0
1265,-0.0671,0.1519,9.6462,-0.0092,-0.0101,-0.0361,0
1285,-0.1226,0.1483,9.7985,0.0324,-0.0459,0.0707,0
1305,-0.1186,0.0125,9.9376,-0.0059,-0.0099,0.0384,0
1325,0.1079,0.2151,9.9574,0.033,-0.0289,-0.0745,0
1345,-0.1549,0.0579,9.6023,0.0234,0.0176,-0.0306,0
1365,-0.1088,0.2795,9.5923,0.0229,-0.0259,0.0097,0
1385,-0.3757,0.2306,9.6083,0.0555,-0.0765,0.013,0
1405,-0.0529,0.2518,9.7855,-0.0448,-0.0088,-0.0596,0
1425,-0.1958,0.5015,9.7638,-0.0189,-0.0543,0.0463,0
1445,0.0143,0.1932,9.601,0.0705,0.0082,0.033,0
1465,-0.1712,0.3362,9.8693,-0.0103,-0.0475,0.0193,0
1485,0.0188,0.5693,10.3078,-0.1126,-0.0195,0.0543,0
1506,-0.026,0.4352,9.699,-0.0081,0.0073,0.0181,0
1526,0.301,0.4076,9.7146,0.0054,-0.0085,0.0179,0
1546,0.0895,0.1448,9.9331,-0.1047,0.01,0.0623,0
1566,-0.3311,0.2413,9.6871,0.0534,0.0272,0.044,0
1586,-0.2277,-0.0373,9.9572,-0.0285,-0.0463,-0.0337,0
1606,0.0099,0.2898,9.6519,0.0131,-0.0026,0.0253,0
1626,-0.1674,0.2494,10.2131,-0.009,-0.1332,-0.0266,0
1646,-0.5343,0.2042,9.8859,-0.0515,0.0099,0.0202,0
1666,0.2429,0.3849,9.6736,-0.0428,-0.012,0.0191,0
1686,0.1296,-0.0174,9.6805,-0.0374,-0.0393,-0.0553,0
1706,0.0938,0.4943,9.697,0.0434,0.0126,-0.0049,0
1726,-0.1093,0.3623,10.112,-0.0059,0.0469,0.0106,0
1746,0.077,0.1873,9.5309,-0.0209,-0.019,-0.0175,0
1767,-0.1268,0.1732,9.6631,-0.0374,-0.0378,0.0126,0
1787,0.0369,0.2865,9.6864,0.0478,0.0066,0.0322,0
1807,-0.1657,0.4738,9.8065,0.0586,-0.0534,-0.0012,0
1827,0.2729,0.2183,9.7504,0.0474,-0.0264,0.009,0
1847,-0.2826,0.2259,9.4819,0.0197,0.0489,0.0553,0
1867,0.2218,0.2033,9.722,0.0116,0.0025,0.0189,0
1887,0.007,0.5208,9.7881,-0.0486,-0.0752,0.008,0
1907,-0.0881,0.1336,9.6718,-0.0098,-0.0719,-0.0383,0
1927,0.0301,0.1947,9.9611,-0.0274,0.0065,0.0268,0
1947,0.132,0.4634,10.0123,-0.073,0.0345,0.0132,0
1967,0.246,0.2265,9.7928,0.0423,-0.0647,0.0513,0
1987,0.0564,0.4047,9.8607,-0.0278,0.018,0.0019,0
2008,-0.1603,0.036,9.3346,0.0478,0.0532,-0.0727,0
2028,0.01,0.163,9.7174,0.0353,0.0755,-0.068,0
2048,0.327,0.4672,10.0311,0.0223,0.0132,0.0294,0
2068,0.2426,0.0783,9.7168,0.0245,0.0203,-0.0228,0
2088,0.1636,0.1728,9.6478,-0.0246,-0.0853,0.0175,0
2108,0.1432,0.2462,10.3111,0.0743,0.084,0.0046,0
2128,0.1259,0.022,10.2102,0.0017,-0.023,-0.0067,0
2148,0.2086,0.1255,9.9129,0.0121,-0.0373,-0.0039,0
2168,-0.0822,0.2203,10.0606,-0.026,-0.0102,-0.0346,0
2188,-0.2439,0.2084,9.3203,-0.0372,0.0605,-0.0006,0
2208,0.0124,0.4305,9.6367,0.0191,0.0883,-0.0234,0
2228,-0.1472,0.4775,9.7066,0.0087,0.005,-0.0149,0
2248,-0.1899,0.0459,9.7581,-0.0316,0.0399,-0.0129,0
2269,-0.1297,0.22,9.7022,-0.0575,0.0017,-0.0091,0
2289,0.4474,0.3214,9.249,-0.0508,-0.0415,0.0369,0
2309,0.0245,0.4729,9.8949,0.0478,0.0591,-0.0052,0
2329,0.0651,0.3293,9.9296,-0.0245,-0.0249,0.0409,0
2349,-0.22,0.2524,10.1624,-0.0136,0.0614,0.0615,0
2369,-0.3319,0.32,9.6366,0.058,0.0519,0.0342,0
2389,-0.1474,0.3213,9.6186,-0.0449,0.0246,0.0214,0
2409,0.2589,0.033,9.2204,-0.0291,0.0732,0.0131,0
2429,0.0602,0.2347,9.7454,-0.0308,0.0893,0.0346,0
2449,0.1077,0.4626,10.0082,0.0647,-0.007,0.0036,0
2469,0.1329,0.1627,9.6754,0.0797,-0.0324,0.0394,0
2489,-0.1064,0.2233,10.2816,0.0301,-0.0746,0.0246,0
2510,0.2498,0.1563,9.7535,0.0313,0.0898,-0.0144,0
2530,-0.1139,-0.2165,9.8423,-0.0232,-0.0176,0.0358,0
2550,0.2531,0.2037,9.5101,0.0779,0.0454,0.0037,0
2570,0.0796,0.2543,9.8732,0.0107,-0.0297,-0.0042,0
2590,-0.322,0.1078,9.3745,0.0341,0.0615,-0.019,0
2610,-0.1346,-0.0078,9.9626,-0.0042,-0.028,0.0066,0
2630,-0.3213,0.0415,9.9694,-0.0107,-0.0477,0.0399,0
2650,0.2094,0.3376,10.109,0.0665,-0.0083,0.0356,0
2670,-0.0045,0.5551,9.5856,0.0216,-0.0213,0.0141,0
2690,-0.4011,0.4488,9.8453,0.0581,0.0239,0.024,0
2710,0.0676,-0.042,9.934,0.0102,-0.0021,0.0509,0
2730,-0.0967,0.3538,9.9073,-0.0339,0.0251,-0.006,0
2751,-0.2671,0.0806,9.6196,-0.0233,-0.0116,-0.0446,0
2771,0.302,0.0952,9.2838,0.0041,-0.0266,0.052,0
2791,0.0193,0.1168,9.8863,-0.0251,-0.0233,-0.0212,0
2811,-0.0528,0.3271,9.7765,-0.0443,0.0818,-0.0276,0
2831,-0.0719,0.3727,9.6853,0.0481,0.009,-0.0718,0
2851,-0.2724,0.1824,9.9781,-0.0218,-0.0794,0.0229,0
2871,-0.2348,0.1854,9.8001,0.0055,-0.0208,-0.0649,0
2891,0.2313,0.2836,9.5198,0.0118,0.0039,-0.03,0
2911,-0.0853,0.3022,9.3851,-0.0235,0.0738,0.0235,0
2931,0.004,0.4117,9.5616,0.058,0.0411,0.0289,0
2951,-0.368,-0.0312,10.3365,-0.0447,-0.0369,-0.0261,0
2971,-0.2373,0.2036,9.969,0.0105,0.0967,-0.0054,0
2991,0.1098,0.0078,9.8515,0.0098,-0.0012,-0.0349,0
3012,0.068,0.1908,9.77,-0.0022,0.0499,-0.0219,0
3032,0.3156,0.1593,9.7556,-0.0519,-0.0462,0.0106,0
3052,0.2417,0.1916,10.0668,0.0348,-0.0959,-0.0201,0
3072,-0.0415,0.056,9.7021,0.0297,-0.0563,-0.0098,0
3092,0.0851,-0.0677,9.9369,-0.027,-0.13,-0.0586,0
3112,-0.057,-0.177,9.7333,0.0283,0.0845,0.0453,0
3132,0.3699,0.1764,10.2368,0.015,0.0086,0.0204,0
3152,0.2068,0.1224,9.9733,-0.0512,-0.037,0.0317,0
3172,0.0305,0.0783,10.084,-0.0342,0.0181,0.0516,0
3192,0.0361,0.4381,9.6814,0.0455,0.0076,-0.033,0
3212,0.2601,0.0453,10.0428,0.0124,0.0248,-0.0143,0
3232,0.1043,0.455,9.7412,-0.0226,0.0484,-0.0758,0
3253,0.2806,0.4923,9.8342,-0.0343,-0.0116,0.1256,0
3273,-0.3949,-0.1512,10.1697,-0.0206,-0.0352,-0.006,0
3293,0.083,0.2166,9.5806,-0.0178,0.0331,0.0415,0
3313,-0.0928,0.1281,9.8547,-0.0338,0.0321,-0.0495,0
3333,0.3161,-0.3241,9.9064,-0.0697,0.004,0.0399,0
3353,0.2784,-0.06,9.9244,0.0456,0.0871,0.0743,0
3373,0.0059,0.3395,9.7108,0.0388,-0.0175,-0.0024,0
3393,0.2764,0.5635,10.269,-0.0509,-0.036,-0.0404,0
3413,0.321,0.3625,9.5251,0.0055,0.0167,-0.0056,1
3433,0.0134,0.0037,10.1842,-0.0361,-0.027,-0.0891,1
3453,0.4449,-0.3122,10.1836,-0.0105,0.0198,-0.0015,1
3473,-0.0056,-0.2579,10.3873,-0.0138,-0.0333,0.0328,1
3493,-0.0386,-0.4244,9.672,-0.0171,-0.016,-0.0014,1
3514,0.1559,-1.164,9.882,0.0801,0.0756,-0.0114,1
3534,-0.0637,-1.6622,10.4523,-0.0176,-0.0162,0.0211,1
3554,0.0154,-1.9194,9.7612,-0.0323,-0.032,0.0242,1
3574,0.2537,-1.5384,9.8698,-0.0305,0.0468,-0.0664,1
3594,0.0035,-2.0139,10.1637,0.0418,-0.042,0.0036,1
3614,-0.3051,-2.1952,10.3599,-0.0661,-0.0277,0.0974,1
3634,0.0661,-2.7663,10.7131,-0.0305,0.0231,-0.0534,1
3654,-0.1253,-2.788,10.3656,0.0579,0.0375,-0.0034,1
3674,0.1557,-2.9059,10.3144,0.0098,0.0488,0.0777,1
3694,0.1253,-3.0069,10.5568,0.0077,-0.0299,0.0442,1
3714,0.2649,-3.2985,10.6298,0.0853,0.0238,-0.0205,1
3734,0.1634,-3.5862,10.6596,0.0099,-0.0186,0.0082,1
3755,0.1962,-3.7033,10.5574,-0.0283,-0.0242,-0.0001,1
3775,-0.1204,-3.4964,10.1982,-0.0113,0.0481,-0.0299,1
3795,0.1447,-3.8106,10.4559,-0.0454,-0.022,-0.003,1
3815,0.3543,-3.8738,10.9972,0.0502,0.0111,-0.0112,1
3835,-0.124,-4.2632,10.7505,0.023,0.0062,0.0045,1
3855,0.324,-4.7383,10.6604,0.045,-0.0428,-0.0299,1
3875,-0.0989,-4.3935,10.9967,0.0485,0.0386,-0.0511,1
3895,-0.1534,-4.5353,10.5188,-0.0166,0.0224,-0.0017,1
3915,0.0533,-4.3835,10.7319,-0.0378,-0.0795,0.0686,1
3935,0.1289,-3.9087,10.823,-0.0021,0.0111,0.0033,1
3955,0.1641,-4.4155,10.704,-0.0349,-0.0309,-0.0133,1
3975,-0.1731,-4.0753,10.829,0.0066,0.0439,0.0302,1
3995,0.0782,-4.4789,10.7684,0.0453,-0.0578,-0.0063,1
4016,-0.1234,-4.6947,10.5018,-0.0067,-0.0143,0.0747,1
4036,-0.268,-4.5051,10.8467,0.006,0.0145,-0.0002,1
4056,-0.1672,-4.2201,10.5089,-0.0038,0.0022,0.028,1
4076,-0.1352,-4.1708,10.8291,0.0321,0.0305,-0.0302,1
4096,0.0939,-4.5499,11.0837,-0.0267,-0.0607,0.0201,1
4116,0.2074,-4.3338,10.7056,-0.0879,0.0661,0.011,1
4136,-0.2652,-4.5566,10.493,0.0188,0.021,-0.0023,1
4156,0.0634,-4.0582,10.7034,0.0395,0.0544,-0.0201,1
4176,-0.2118,-3.8218,10.5263,0.0179,0.035,-0.0255,1
4196,0.1132,-3.9768,10.8156,-0.0256,-0.0005,0.0113,1
4216,-0.1121,-3.9748,10.6252,-0.0454,-0.0514,0.0252,1
4236,-0.1892,-3.6491,11.0045,0.0198,-0.0225,-0.0051,1
4257,0.1439,-3.4869,10.8524,0.0057,0.0636,0.0115,1
4277,-0.1056,-3.3849,10.5289,-0.005,0.0554,-0.0015,1
4297,-0.0569,-3.1946,10.6839,0.0729,-0.0248,0.0039,1
4317,-0.3996,-3.0756,10.4018,-0.0379,-0.1127,-0.008,1
4337,0.1704,-2.6734,10.4557,0.071,-0.0085,0.0007,1
4357,0.1478,-2.5199,10.3269,0.0013,-0.0115,0.1079,1
4377,0.001,-2.621,10.5314,-0.0734,-0.01,0.0125,1
4397,-0.275,-2.4101,10.6329,-0.0072,0.0211,0.0258,1
4417,0.2177,-2.0512,10.4468,0.0384,0.035,0.0175,1
4437,-0.1199,-1.6438,10.426,-0.0146,0.0396,-0.0105,1
4457,-0.0816,-1.5151,10.3772,-0.059,0.0178,0.0518,1
4477,0.4162,-1.418,10.2454,-0.0066,-0.072,-0.0116,1
4497,-0.1267,-1.0113,9.8225,-0.0343,-0.0136,0.0422,1
4518,0.1336,-0.8706,10.3956,0.0197,0.0922,-0.0134,1
4538,0.1012,-0.4023,10.366,0.0309,0.015,-0.0384,1
4558,0.0702,-0.2484,9.8648,-0.0423,0.0147,0.0146,1
4578,0.0508,-0.1113,9.7817,-0.0282,0.0144,-0.0442,1
4598,0.0677,0.2417,9.9447,0.0303,0.0166,0.0214,1
4618,0.0489,0.4367,9.9312,-0.0344,-0.0953,-0.0478,1
4638,-0.0093,0.0975,9.7656,-0.0433,-0.0096,-0.0128,1
4658,0.272,0.2725,9.535,-0.0471,-0.0015,-0.0573,1
4678,-0.2363,0.1873,9.8773,0.0141,0.0513,0.113,1
4698,0.1839,0.2769,9.9313,0.0124,0.0019,-0.0662,1
4718,0.148,0.0822,9.9697,-0.0274,-0.0659,0.0004,1
4738,0.1257,0.2199,9.8868,0.0002,0.0172,0.0457,1
4759,0.2011,0.3994,9.7504,0.0611,-0.0322,0.0415,1
4779,-0.0167,0.0313,10.0287,-0.039,-0.0487,0.0341,1
4799,-0.3364,-0.0393,9.8245,-0.0781,-0.0334,-0.0127,1
4819,-0.013,-0.0325,9.7077,0.0182,0.0217,0.054,1
4839,-0.1784,-0.0107,9.7703,-0.0044,0.0504,0.0365,1
4859,-0.1317,0.3072,9.4259,-0.0284,0.0193,0.0085,1
4879,-0.2236,-0.0531,9.7699,0.0261,0.0253,0.0096,1
4899,-0.0859,0.1464,9.9615,0.0336,0.0189,-0.0122,1
4919,-0.1074,0.3113,9.8848,-0.0883,0.0041,-0.0364,1
4939,-0.428,0.275,10.1445,-0.0261,0.0279,0.0495,1
4959,0.126,0.1306,9.7521,0.0927,-0.0968,0.0525,1
4979,0.3997,0.2344,9.9172,0.0233,0.0044,-0.0354,1
5000,0.1091,0.2193,9.9844,0.027,-0.0418,-0.0062,1
