timestamp_ms,ax,ay,az,gx,gy,gz,label
0,-0.1411,-0.0664,9.6564,0.0712,0.0706,-0.0271,0
20,0.2095,0.199,10.1325,-0.0119,0.0272,0.0717,0
40,0.1409,0.3565,9.8011,-0.0052,0.027,0.0449,0
60,-0.0038,-0.1339,10.0943,-0.0046,-0.0359,0.0176,0
80,0.026,0.1884,9.7264,-0.0538,0.0708,0.0325,0
100,-0.0015,-0.0188,9.9433,0.0229,0.0551,-0.0757,0
120,0.0877,0.0845,9.6504,-0.0261,-0.0337,0.0291,0
140,-0.1439,-0.2509,9.6354,-0.0012,-0.019,0.0376,0
160,0.1553,0.4507,9.4094,0.0178,0.0502,-0.0896,0
180,0.0636,0.136,9.8839,0.0777,0.0718,0.0306,0
200,-0.0474,0.0547,9.8677,-0.0527,-0.0506,-0.057,0
220,-0.0878,0.2591,9.981,0.0346,-0.0401,-0.0788,0
240,0.1514,0.0124,9.8573,0.0347,-0.0058,0.0531,0
261,-0.0271,-0.0047,10.2558,-0.0255,-0.0868,-0.0403,0
281,-0.1258,0.4719,9.8487,0.024,0.0008,-0.0286,0
301,-0.0692,0.5256,10.0282,0.0657,0.0474,0.0396,0
321,0.1385,0.0934,9.7387,-0.0306,-0.0575,-0.0122,0
341,-0.2899,0.3921,9.6101,0.0097,0.0051,-0.0072,0
361,-0.064,0.2641,9.9679,0.0162,-0.0233,-0.0081,0
381,0.1927,-0.0545,9.7904,0.0214,0.0656,0.0139,0
401,-0.0303,0.0329,9.993,0.0308,-0.0228,-0.0091,0
421,0.0491,0.4792,9.8876,0.0067,0.0608,0.0046,0
441,0.1956,-0.0568,9.6355,0.0205,-0.0239,-0.0201,0
461,0.1606,0.6106,10.0464,-0.0365,0.0308,0.0141,0
481,-0.0792,0.0972,9.6183,0.0066,0.0101,0.0126,0
502,-0.0235,0.4845,9.9476,-0.0191,-0.0055,0.0759,0
522,0.1629,0.145,10.092,-0.0492,-0.0316,-0.0153,0
542,0.1691,0.344,9.7254,-0.0204,0.0129,-0.0074,0
562,-0.0158,0.4511,10.0643,0.0108,-0.0176,0.0096,0
582,-0.0096,0.4502,9.8975,0.0174,-0.0276,0.0386,0
602,0.0482,0.0948,9.9974,-0.0507,0.0589,-0.0437,0
622,0.246,0.0457,9.6259,-0.0375,0.0219,0.0041,0
642,0.1922,0.1854,9.8571,0.029,0.0257,-0.1003,0
662,0.1248,-0.0341,9.5002,0.0203,-0.0157,-0.0109,0
682,-0.1942,0.2431,10.1865,0.0355,-0.0074,0.0429,0
702,-0.0495,0.0523,9.3669,0.0547,-0.0099,-0.029,0
722,-0.04,0.3949,9.732,0.0215,0.0135,0.0071,0
742,0.2553,0.0974,9.605,-0.0166,0.0257,-0.0212,0
763,-0.043,-0.1136,9.9584,0.0046,-0.0012,-0.0344,0
783,0.2256,0.4522,10.2333,0.0664,-0.0317,0.0389,0
803,-0.1027,0.233,9.9541,0.1106,0.0304,-0.0418,0
823,-0.0884,0.2052,10.4615,0.0185,0.0013,0.0117,0
843,0.0867,0.397,9.5069,0.0214,-0.0576,0.0123,0
863,0.2823,0.3569,9.5237,0.029,-0.0854,-0.0341,0
883,-0.0381,0.0629,9.6135,0.001,0.0119,0.0062,0
903,-0.4613,0.119,9.8367,0.0466,-0.0332,-0.0374,0
923,-0.2816,-0.0003,9.5841,0.0403,0.0172,0.0209,0
943,0.0536,-0.0636,9.6446,0.0142,-0.031,-0.0526,0
963,-0.2655,0.3041,9.9465,-0.0127,0.0053,-0.0136,0
983,-0.1558,0.2706,9.5374,-0.0608,-0.0151,-0.0101,0
1004,0.0022,0.3369,9.5607,0.0293,0.0701,0.0445,0
1024,-0.4409,0.4307,9.7223,0.0085,0.038,0.0056,0
1044,-0.0684,0.3394,9.743,-0.0295,0.0539,0.0382,0
1064,-0.2097,0.3554,10.0322,-0.0452,0.001,0.0222,0
1084,-0.2699,-0.174,9.6119,0.0265,0.0329,0.0219,0
1104,-0.1444,0.1447,9.6515,-0.064,0.0037,-0.0133,0
1124,-0.1925,0.3736,9.938,0.012,0.0588,0.0408,0
1144,0.0845,-0.0103,9.9863,0.0337,-0.0029,-0.0142,0
1164,0.2154,0.2165,10.1243,0.022,-0.0559,-0.0692,0
1184,-0.0656,0.2935,9.9132,-0.0156,-0.0799,-0.0086,0
1204,-0.1073,0.2797,9.8387,-0.05,0.0667,0.0181,0
1224,-0.0746,0.2664,9.9365,0.0235,0.0191,-0.0643,0
1244,-0.1995,0.3078,9.7512,0.048,0.0218,-0.0354,0
1265,-0.232,0.2325,9.7496,-0.0229,0.0596,-0.0492,0
1285,-0.2962,-0.0633,9.4197,0.0203,-0.0661,0.0315,0
1305,-0.2393,0.2913,10.0066,0.0633,-0.0143,0.0669,0
1325,0.2938,0.2513,9.8565,0.0136,-0.0094,-0.0084,0
1345,-0.1243,-0.061,9.9809,-0.0159,0.0297,0.0213,0
1365,-0.5295,0.4484,9.1905,0.0416,-0.0277,0.0202,0
1385,-0.1057,0.2961,9.7996,-0.0295,-0.0481,0.0622,0
1405,-0.2863,-0.0485,9.6217,-0.0519,-0.0484,-0.0261,0
1425,0.0107,0.0529,10.1403,0.0325,0.046,-0.0088,0
1445,-0.0087,0.0985,9.9451,-0.0162,-0.0297,-0.0136,0
1465,0.0101,0.0983,9.8615,-0.0127,-0.0221,0.003,0
1485,-0.0073,0.2527,9.715,-0.0251,0.0254,0.1002,0
1506,-0.0671,0.0243,9.8974,-0.0189,-0.028,0.0012,0
1526,-0.2621,0.4031,9.6058,0.0561,-0.0682,-0.0342,0
1546,-0.0134,0.3882,9.7881,0.0665,-0.0633,-0.0462,0
1566,0.1834,0.3115,9.6828,0.0718,-0.0023,0.0501,0
1586,0.3265,0.208,10.3086,0.0436,0.0199,-0.0344,0
1606,-0.0428,0.3687,10.1334,0.0187,-0.0081,0.0265,0
1626,-0.0233,0.1503,10.0439,-0.0573,0.0172,-0.0272,0
1646,0.0901,0.0696,9.4821,-0.0075,-0.0645,-0.0507,0
1666,0.2688,0.4142,10.0001,0.0863,-0.0618,0.0242,0
1686,-0.0875,0.2572,9.8513,-0.0174,0.0902,-0.0252,0
1706,0.1247,0.0769,10.0792,0.0606,0.0493,0.017,0
1726,-0.1481,0.1248,9.8809,0.0022,0.0308,0.02,0
1746,0.0594,0.0674,9.8085,-0.1071,-0.0264,0.0219,0
1767,0.1747,0.564,9.8614,0.0256,-0.0095,-0.0107,0
1787,-0.2324,0.2007,9.4128,0.0507,-0.0001,0.0274,0
1807,-0.0945,0.2284,9.6412,-0.002,0.0526,-0.0369,0
1827,0.1719,0.3298,9.8921,0.0493,0.0161,-0.0982,0
1847,0.1109,-0.0188,10.0607,-0.0667,0.021,0.0283,0
1867,0.1865,0.3974,9.6889,-0.0554,-0.0067,0.0066,0
1887,0.1527,0.0906,9.801,0.0082,0.0317,-0.0244,0
1907,-0.0614,0.5294,9.4578,0.0191,0.0121,-0.0588,0
1927,0.3959,0.1437,10.131,0.0543,0.0018,-0.0815,0
1947,0.0246,0.3868,10.055,0.0256,-0.0297,0.0021,0
1967,-0.55,-0.2494,9.9535,-0.0477,-0.0045,0.066,0
1987,-0.0508,-0.0115,9.8995,0.0085,-0.0432,-0.0055,0
2008,-0.0845,0.1472,10.1516,0.024,-0.0016,-0.0145,0
2028,0.1431,-0.1655,9.6329,-0.075,0.0036,-0.001,0
2048,-0.0812,0.3082,9.6091,-0.0017,-0.0962,0.0872,0
2068,0.1978,0.2563,10.0435,-0.0134,-0.0092,0.0301,0
2088,0.1005,0.0217,10.0287,-0.0262,-0.047,-0.0373,0
2108,-0.18,0.1971,9.5474,0.02,0.0199,0.0011,0
2128,-0.0253,0.3452,9.6931,-0.046,0.0255,0.0133,0
2148,-0.1396,-0.1785,10.1816,0.0167,-0.0171,-0.0423,0
2168,0.0333,-0.0292,9.9006,0.0224,0.022,0.0304,0
2188,-0.1407,0.1397,9.9832,0.0434,0.0236,-0.0327,0
2208,0.0134,0.2043,9.555,-0.0449,-0.0092,-0.0604,0
2228,-0.049,0.1894,9.9545,-0.0602,0.0614,0.003,0
2248,-0.0274,0.3601,9.4977,0.0112,-0.029,-0.0033,0
2269,0.3692,0.2859,9.3744,-0.0115,0.0589,-0.0,0
2289,-0.0649,0.3254,9.9699,0.1161,-0.009,-0.0306,0
2309,-0.3482,-0.0502,10.1256,0.0183,-0.0337,-0.025,0
2329,0.1828,0.2261,9.7542,0.0023,-0.0141,0.0451,0
2349,0.1814,0.1447,9.6898,-0.0069,-0.044,0.0176,0
2369,-0.3562,0.4632,10.1864,-0.0487,0.0314,-0.0383,0
2389,-0.1262,0.2314,9.7671,0.0226,-0.0641,-0.078,0
2409,0.0784,0.0796,9.7955,-0.0032,0.0556,-0.0366,0
2429,0.0944,0.3535,10.1827,-0.0031,-0.0374,0.0063,0
2449,-0.0009,0.3014,9.7322,0.0038,0.0335,-0.0253,0
2469,0.0032,0.0521,9.6661,0.0088,0.001,-0.0284,0
2489,-0.1689,0.1373,9.9894,-0.0696,0.0108,-0.0236,0
2510,-0.432,0.1403,9.6534,0.0335,-0.0236,-0.0029,0
2530,0.3689,0.4209,9.7782,-0.0339,0.0141,0.0314,0
2550,-0.1744,0.2366,9.5198,-0.0055,0.0054,-0.0,0
2570,0.0318,0.3308,9.8508,0.0514,-0.0583,0.0025,0
2590,-0.0286,0.1112,9.825,0.0712,-0.0385,-0.009,0
2610,0.1615,0.2603,10.023,-0.068,-0.0216,-0.02,0
2630,0.0207,0.4346,9.9986,0.0012,-0.0302,0.0358,0
2650,0.0276,0.135,9.9313,0.0109,0.0501,0.0297,0
2670,-0.4742,0.2207,9.8967,-0.0603,0.0003,0.0818,0
2690,-0.15,-0.0454,9.7939,0.0321,-0.0311,0.0244,0
2710,0.134,0.0622,9.9441,0.0047,-0.0196,-0.0199,0
2730,0.1178,0.1398,9.5653,0.0078,-0.0202,-0.0362,0
2751,-0.1713,0.009,9.2932,-0.0367,-0.0115,0.0381,0
2771,-0.284,0.438,10.0656,0.0165,-0.043,-0.0326,0
2791,0.0228,0.0492,9.9583,0.0335,-0.0326,0.0324,0
2811,-0.5232,0.3416,9.7821,0.0051,0.0307,-0.0304,0
2831,-0.2068,0.2336,10.0464,-0.0206,0.0074,0.014,0
2851,0.3168,0.2056,9.6491,-0.0174,-0.0061,-0.0424,0
2871,0.2601,0.4675,9.6548,0.0088,0.0001,0.0312,0
2891,0.0877,-0.2069,9.6243,0.002,-0.0018,-0.0493,0
2911,0.0553,0.1647,9.9349,0.0362,-0.0084,0.0109,0
2931,-0.351,0.0055,9.4617,-0.0192,0.0207,-0.0079,0
2951,-0.1333,-0.1531,9.6413,-0.0487,0.0177,0.0041,0
2971,-0.0531,-0.0151,9.8737,0.0144,-0.0629,-0.0158,0
2991,-0.1295,0.2031,9.5451,-0.0191,-0.0053,-0.0168,0
3012,-0.063,0.0694,9.6647,0.0313,-0.0602,0.0062,0
3032,0.2339,0.3614,9.3235,0.0003,0.0254,-0.0401,0
3052,-0.0975,0.1615,9.9433,0.0262,0.0307,-0.0403,0
3072,-0.0614,0.1415,9.6587,-0.0406,-0.0244,-0.0143,0
3092,0.1331,0.1423,9.5682,0.0057,-0.0047,-0.0159,0
3112,-0.2555,0.1823,9.5251,-0.028,-0.0845,-0.0402,0
3132,-0.1512,0.1247,9.718,-0.0488,0.0389,0.037,0
3152,-0.1328,0.0468,9.4624,-0.0344,0.0284,-0.0134,0
3172,0.01,0.3781,10.2373,-0.0218,0.046,-0.0091,0
3192,-0.0621,0.0877,9.2854,0.0498,0.0595,-0.0531,0
3212,-0.0564,0.131,9.7109,-0.0228,-0.049,0.0829,0
3232,-0.1197,0.2773,9.8335,-0.0509,0.0355,0.0971,0
3253,-0.1927,0.2574,9.6394,0.0053,0.0592,-0.0312,0
3273,0.1096,0.0392,9.8567,0.0012,-0.0598,0.049,0
3293,-0.0608,0.3359,9.6341,-0.0197,-0.0068,-0.0037,0
3313,0.1114,0.2968,10.1466,-0.0064,-0.0145,0.0642,0
3333,-0.2001,0.232,9.5638,0.039,0.0342,0.0134,0
3353,-0.1197,0.1224,9.2927,0.0268,-0.0958,0.004,0
3373,-0.0398,0.1268,9.5243,0.0234,0.0726,-0.1,0
3393,-0.023,0.1637,9.895,-0.0473,-0.0045,-0.0351,0
3413,0.1358,-0.0217,9.7841,0.1155,0.0366,0.0008,0
3433,-0.0775,0.1929,9.9755,0.0421,-0.0024,0.0079,0
3453,0.1344,0.3606,9.9204,0.0207,0.0197,-0.0486,0
3473,0.0675,0.3577,9.67,-0.0466,-0.0929,-0.0292,0
3493,-0.0192,0.1314,9.7024,0.0379,-0.0154,0.0221,0
3514,-0.1712,0.3915,9.7252,-0.02,0.0339,-0.0553,0
3534,0.1362,0.5431,10.2246,-0.0078,0.0115,0.0053,0
3554,-0.1667,0.1431,9.962,-0.0672,-0.0655,0.0495,0
3574,-0.0038,0.3245,10.2262,-0.0497,0.0025,0.0154,0
3594,-0.0097,-0.2073,9.995,0.0175,-0.0327,0.0134,0
3614,-0.0373,-0.0265,9.796,0.0402,-0.0362,-0.0808,0
3634,-0.0701,0.2164,9.5857,0.0274,-0.0608,-0.0329,0
3654,-0.148,0.0188,9.8543,0.026,0.0247,0.0822,0
3674,-0.291,0.5671,9.7966,-0.0026,0.0445,-0.024,0
3694,0.2527,0.3076,9.7894,-0.0163,0.0848,0.0506,0
3714,-0.0885,0.3738,9.764,0.0116,-0.059,-0.0244,0
3734,-0.0231,0.1948,9.3585,0.0329,0.0307,-0.0111,0
3755,-0.0242,0.0194,10.0874,0.0002,0.0333,0.0206,0
3775,0.1972,0.1066,9.7989,0.0484,-0.0232,0.004,0
3795,0.348,0.2458,9.4989,-0.0086,-0.0367,0.0153,0
3815,0.0288,0.0852,9.916,-0.0392,-0.0434,-0.0327,0
3835,-0.0283,0.3208,9.6217,-0.0004,-0.0211,-0.0455,0
3855,-0.2022,0.3281,9.9337,0.0042,0.0081,-0.0354,0
3875,-0.2598,0.2009,10.004,-0.0033,0.0544,-0.0213,0
3895,-0.3193,-0.1286,10.0343,0.0512,0.0442,-0.0092,0
3915,-0.1433,0.5087,9.7746,0.0322,-0.0646,0.0415,0
3935,-0.3764,0.1617,9.719,-0.0572,-0.0316,0.0035,0
3955,0.1942,0.6877,9.6724,0.0614,0.052,0.0194,0
3975,0.0762,0.3175,9.651,-0.1097,-0.0292,0.0057,0
3995,-0.0453,0.1622,9.8062,0.086,-0.0023,-0.0446,0
4016,0.1997,0.2806,9.7639,-0.0115,-0.0682,0.0007,0
4036,-0.1928,-0.1635,9.6284,-0.0076,0.0461,0.0052,0
4056,-0.1476,0.3847,9.5584,-0.0024,-0.0765,0.0304,0
4076,-0.3481,0.662,9.7861,0.0154,-0.0657,-0.0427,0
4096,0.1394,-0.1761,9.7145,-0.0,0.042,-0.0816,0
4116,-0.1459,0.1483,9.5589,-0.0053,0.0768,0.0071,0
4136,0.0028,0.181,9.9927,0.0524,-0.0116,0.0142,0
4156,0.1805,0.3575,10.1999,0.0226,-0.0019,-0.0072,0
4176,0.2468,0.5791,10.0218,-0.0384,0.0363,0.0011,0
4196,-0.0052,0.2689,9.6516,0.0296,0.0116,0.0352,0
4216,0.0692,0.5855,9.7989,0.021,-0.0149,-0.0184,0
4236,-0.1627,0.2307,10.1489,-0.0218,-0.0194,-0.0111,0
4257,0.303,0.2813,9.5518,0.0317,-0.0627,0.0032,0
4277,-0.0299,0.2591,9.9822,-0.0063,0.0093,-0.0488,0
4297,0.0145,0.4197,9.4914,-0.0089,-0.0037,-0.0061,0
4317,-0.0732,0.124,10.1805,-0.01,-0.0175,-0.0025,0
4337,0.2159,0.3473,9.7153,-0.0971,-0.0401,0.0655,0
4357,0.0359,-0.0215,10.3004,-0.0211,-0.036,-0.0119,0
4377,0.137,0.1488,10.1902,0.0285,0.0247,0.008,0
4397,0.0637,0.0854,9.7866,-0.0009,0.0353,0.0367,0
4417,-0.0397,0.2158,9.6517,-0.0514,-0.0131,-0.0335,0
4437,0.1673,0.1431,9.8529,0.0386,-0.0173,0.055,0
4457,0.0622,0.4038,9.7704,-0.0119,-0.0341,0.0706,0
4477,-0.173,0.0418,9.7217,-0.0489,0.0375,-0.0012,0
4497,-0.1781,-0.1116,9.4452,0.0882,0.0012,-0.0216,0
4518,0.0268,-0.0443,9.6968,-0.0421,0.0147,0.0651,0
4538,0.1633,0.379,9.5657,0.0352,0.0143,0.0318,0
4558,0.2951,0.0255,9.9314,-0.0308,-0.0123,0.0033,0
4578,-0.3199,0.2716,10.028,0.0054,-0.0466,0.0571,0
4598,0.0046,0.1469,9.973,-0.0361,-0.0398,0.0528,0
4618,0.0881,0.3484,9.8853,-0.0496,0.0451,-0.0135,0
4638,0.0532,0.1585,9.6224,0.0209,-0.029,0.0099,0
4658,0.1817,0.6976,9.8552,0.0162,-0.0164,0.0231,0
4678,0.118,0.5417,9.9844,0.0458,-0.0454,0.0011,0
4698,-0.1774,0.1433,9.681,-0.0014,-0.0486,-0.0556,0
4718,-0.1827,0.1186,9.8362,0.0888,-0.0308,-0.0375,0
4738,0.0562,0.7638,9.778,0.0107,0.0675,-0.0543,0
4759,0.1783,0.0058,10.1757,0.0227,0.0263,0.0197,0
4779,0.0258,0.1901,9.9973,-0.0543,-0.0211,-0.0474,0
4799,-0.284,0.204,9.944,-0.0246,0.0433,0.0077,0
4819,-0.1885,0.1996,9.4323,0.0208,-0.0061,0.0733,1
4839,12.0949,-10.8618,13.3228,0.7836,0.0542,1.4502,1
4859,18.2769,-19.9117,16.3064,1.4866,0.0885,2.5447,1
4879,16.1489,-27.1915,18.5725,1.9601,0.0411,3.4763,1
4899,6.5611,-30.4914,19.4713,2.271,0.0038,3.9802,1
4919,-6.5857,-31.012,19.5759,2.2708,0.028,3.9645,1
4939,-16.2022,-27.0062,18.5935,1.9456,0.0006,3.4613,1
4959,-18.4338,-20.4,16.5856,1.5048,-0.0734,2.6177,1
4979,-11.9064,-10.9366,13.1549,0.719,-0.0262,1.4213,1
5000,0.1391,0.0489,9.722,0.0074,-0.0381,0.0382,1
