timestamp_ms,ax,ay,az,gx,gy,gz,label
0,0.1911,0.1497,9.6863,-0.0028,-0.012,-0.0288,0
20,0.0107,-0.0954,9.7821,-0.0265,-0.0078,0.0026,0
40,0.0021,0.0269,9.9261,-0.0023,0.0189,-0.0212,0
60,-0.0769,-0.0862,9.8332,-0.0054,-0.0242,0.0386,0
80,-0.2319,-0.0154,9.9534,0.0321,0.0183,0.0211,0
100,0.1449,-0.0736,9.9403,-0.0348,0.0633,0.0087,0
120,0.0884,-0.015,9.6007,-0.0274,-0.0392,-0.0202,0
140,-0.0941,-0.2279,9.5239,-0.019,-0.0134,-0.0312,0
160,-0.0679,0.1364,10.0937,-0.0268,-0.008,-0.0007,0
180,0.1206,-0.2199,9.6753,-0.0132,-0.0551,0.0026,0
200,0.19,0.0322,10.1697,-0.0116,-0.0101,-0.0294,0
220,0.0257,0.0118,9.7931,0.0053,-0.0011,-0.0019,0
240,-0.08,-0.1346,10.3088,0.0038,0.0285,0.0401,0
260,-0.1203,-0.0048,9.7631,-0.0022,0.0185,0.0286,0
280,-0.0179,0.2046,9.477,0.0435,0.0232,-0.0314,0
301,0.2474,0.1576,9.9442,-0.0432,-0.0173,-0.0243,0
321,-0.0071,0.0742,10.0733,0.0098,0.0074,-0.0109,0
341,0.0084,-0.1246,9.8425,-0.0492,-0.0072,0.031,0
361,-0.1875,0.0189,9.8419,0.0302,-0.0017,-0.0153,0
381,0.1164,0.0548,9.8299,-0.0075,-0.0108,-0.0301,0
401,0.2754,0.1228,9.8965,0.0494,-0.0068,0.024,0
421,0.0845,0.0238,9.7461,0.0008,0.0491,-0.0273,0
441,0.0883,-0.108,10.1385,0.0327,0.0032,0.0164,0
461,0.2798,0.252,9.7525,-0.0317,-0.0222,0.0285,0
481,-0.1325,-0.0795,9.9566,-0.0021,-0.0431,0.0573,0
501,0.0164,-0.0635,9.8389,-0.0095,0.0024,0.0105,0
521,-0.0384,0.1355,9.9054,-0.0019,-0.0195,0.0169,0
541,0.0953,0.1932,10.1829,0.0071,0.0284,-0.0344,0
561,0.0385,0.088,9.5691,-0.0004,-0.0035,0.0018,0
581,-0.0293,0.066,9.5276,0.0027,-0.0008,-0.001,0
602,-0.3577,0.0943,9.7684,-0.0327,0.001,0.0492,0
622,0.2112,-0.0335,9.5925,0.0403,-0.0313,-0.025,0
642,0.0847,0.169,9.6717,0.0274,-0.0487,-0.038,0
662,0.1031,-0.1292,9.6826,0.0128,0.0015,0.0742,0
682,-0.1173,0.064,9.8697,0.035,0.0123,-0.0048,0
702,0.244,-0.128,9.7997,0.0126,-0.0416,-0.017,0
722,0.1928,-0.0217,9.9044,0.0055,0.0187,0.0482,0
742,0.2818,0.1896,9.8767,0.0455,0.039,-0.0345,0
762,-0.1708,-0.0437,9.796,-0.0102,0.0027,0.0017,0
782,-0.1027,0.0537,9.7499,0.0322,-0.0107,0.0004,0
802,0.2181,0.1401,10.0328,0.03,-0.0029,0.0264,0
822,0.0506,-0.1302,9.8003,-0.0124,0.0678,-0.0416,0
842,0.1818,0.0213,9.5624,-0.0345,0.0225,-0.0485,0
862,-0.1077,-0.0095,9.8785,-0.0038,-0.0062,0.0204,0
882,-0.0506,0.3207,9.8309,-0.0117,-0.049,0.0236,0
903,-0.0878,0.2178,9.9385,0.0335,0.0099,-0.0058,0
923,0.2172,0.2208,9.906,0.0052,-0.0082,0.0144,0
943,-0.3781,0.0317,9.6268,0.0253,0.0033,0.0067,0
963,0.0078,0.0812,9.5823,-0.0183,0.0258,0.058,0
983,0.1657,0.2374,9.7145,-0.0151,0.032,0.0667,0
1003,0.175,0.1123,9.7212,-0.0242,0.0784,-0.0143,0
1023,-0.1232,0.2178,9.8734,-0.0181,-0.0346,0.0482,0
1043,0.0122,0.3406,10.0755,0.0262,0.0395,-0.0153,0
1063,-0.1697,-0.0299,9.9123,0.037,-0.0004,0.0118,0
1083,-0.0135,0.3073,9.7366,-0.0022,0.0262,-0.0213,0
1103,-0.0324,0.1379,9.6601,0.0096,0.0024,-0.0537,0
1123,0.1222,0.059,9.6576,0.0351,-0.0271,-0.0089,0
1143,0.0389,-0.0727,9.7437,0.0089,-0.0469,-0.0116,0
1163,-0.1687,0.0719,9.6972,-0.0059,0.0158,-0.0244,0
1183,0.1948,-0.1196,9.7669,-0.0114,0.0307,-0.0253,0
1204,0.1601,0.3398,10.0721,0.0006,0.0212,0.0189,0
1224,0.1269,0.1467,10.1073,-0.0117,0.0605,-0.0262,0
1244,-0.0301,0.1826,9.7214,0.005,-0.031,0.0147,0
1264,0.1279,0.1613,9.5766,0.033,-0.0185,0.0159,0
1284,-0.099,-0.0346,9.8382,-0.046,-0.0207,0.003,0
1304,-0.3063,-0.0037,9.9328,-0.0011,-0.0085,-0.0093,0
1324,0.0005,0.1746,9.8051,0.008,-0.0328,0.0035,0
1344,-0.066,0.2297,9.559,-0.0273,0.0004,-0.0256,0
1364,-0.1454,-0.1059,9.9471,0.0621,-0.0042,0.0282,0
1384,-0.213,-0.0119,9.9658,0.0497,0.0148,-0.0317,0
1404,0.08,0.1574,9.309,0.0128,-0.01,0.0435,0
1424,0.032,0.2672,9.6506,0.019,-0.0199,-0.0291,0
1444,-0.1543,0.121,9.8159,0.0067,0.0004,0.0149,0
1464,0.0486,0.2254,9.8303,-0.0014,-0.0174,-0.0043,0
1484,0.1411,0.1842,9.9336,-0.033,0.0402,-0.0041,0
1505,0.2936,0.3251,10.0021,0.022,0.0024,0.0133,0
1525,-0.0581,0.3389,9.8365,-0.0186,0.0515,0.0401,0
1545,0.2568,0.0104,9.8164,0.0237,-0.008,0.0189,0
1565,0.1253,0.1132,9.2876,-0.0013,0.0122,0.0126,0
1585,0.0339,0.1152,9.6095,0.051,-0.0103,0.0146,0
1605,0.2076,-0.0492,10.0609,-0.0118,0.0213,0.0321,0
1625,-0.1773,0.1357,9.6029,0.0366,-0.0035,0.0445,0
1645,0.0215,0.3322,9.8006,-0.0002,0.0093,0.0254,0
1665,0.0612,0.0934,10.0815,0.0111,-0.0117,-0.0301,0
1685,-0.3344,0.1837,9.9961,-0.0216,-0.0343,-0.0223,0
1705,-0.0531,0.3688,9.8178,0.0407,-0.0423,-0.0017,0
1725,-0.0295,0.3357,9.8209,0.0021,0.0313,0.0046,0
1745,-0.1381,0.386,9.8977,-0.0374,0.0025,0.0217,0
1765,-0.1068,0.0257,9.4482,-0.0072,0.002,0.0384,0
1785,-0.0005,0.1185,9.9672,-0.0281,-0.0484,0.0135,0
1806,0.1722,0.1567,9.924,0.0218,0.0018,-0.0148,0
1826,-0.0934,0.2382,9.733,0.0033,-0.06,0.005,0
1846,0.0183,0.2007,9.7495,0.0239,0.0047,0.0189,0
1866,-0.2169,0.219,9.9228,-0.005,-0.0061,0.0308,0
1886,0.0515,0.2238,9.6425,-0.0189,0.0233,-0.0394,0
1906,0.0179,0.0094,10.3266,0.0094,0.0048,-0.0071,0
1926,-0.0728,0.2357,9.4526,-0.0086,0.0346,-0.0355,0
1946,-0.0405,0.3269,9.6206,0.0137,0.0352,0.0094,0
1966,-0.1047,0.3425,9.8543,-0.0038,-0.0267,-0.0245,0
1986,-0.0049,-0.1239,9.8373,-0.0355,-0.035,-0.0141,0
2006,-0.0099,0.5688,10.0809,-0.0282,0.0089,0.0133,0
2026,0.163,0.4828,9.9573,-0.0019,-0.0501,0.0201,0
2046,-0.3027,0.0468,9.9589,0.032,0.004,-0.0022,0
2066,-0.137,0.5356,9.8308,-0.0096,0.0205,0.005,0
2086,-0.4997,0.2571,9.8154,0.0178,0.0384,-0.0191,0
2107,-0.1442,0.1306,9.7269,-0.0042,0.0329,-0.0336,0
2127,0.0461,0.1635,10.0301,-0.0225,0.0038,-0.0173,0
2147,-0.1826,0.1076,9.5207,0.0035,0.0023,-0.0501,0
2167,-0.1807,0.2294,9.9667,0.0263,0.0115,-0.0878,0
2187,0.2439,0.3323,9.9172,0.0147,0.005,0.0196,0
2207,0.1301,-0.0127,10.052,-0.0067,0.0092,-0.0199,0
2227,0.1069,0.2434,10.2506,0.0112,-0.0332,-0.0558,0
2247,0.0586,0.3829,9.7465,-0.0051,0.0209,0.0648,0
2267,-0.0491,0.1258,9.467,-0.0521,-0.0321,0.0317,0
2287,-0.0295,0.3229,9.6975,0.0168,0.0343,0.0306,0
2307,-0.4947,0.0989,9.6147,0.0196,-0.0043,-0.0263,0
2327,-0.0576,0.2156,10.0131,-0.013,0.0238,-0.0049,0
2347,-0.0576,0.2614,10.0104,-0.0041,0.0178,0.0136,0
2367,-0.0522,0.3027,9.8133,0.0443,0.0254,-0.0413,0
2387,0.0626,0.2822,9.7006,-0.0023,0.0036,0.0267,0
2408,-0.063,0.1993,9.8564,-0.0383,-0.0097,-0.0318,0
2428,0.0703,0.3583,9.8043,0.0062,-0.0009,0.0114,0
2448,-0.1019,0.0192,9.8941,0.0218,0.0226,0.0393,0
2468,0.2633,0.1757,9.8185,-0.0112,0.0298,0.0425,0
2488,-0.1878,0.1059,9.7899,0.0097,0.0198,-0.0145,0
2508,-0.0121,0.0519,10.2801,0.0124,-0.0218,-0.0237,0
2528,0.2333,0.3305,9.7639,0.0683,-0.0071,0.02,0
2548,0.0168,0.2929,9.6716,0.0111,-0.0066,0.0083,0
2568,-0.2097,0.4438,9.5521,0.0096,0.0267,0.0433,0
2588,0.3337,0.0542,9.8866,-0.004,-0.0257,-0.0011,0
2608,0.1076,0.1112,10.0177,0.0015,-0.0075,-0.0383,0
2628,-0.033,0.0184,9.7281,0.01,0.0069,-0.0078,0
2648,0.0852,0.2176,9.9878,0.0119,0.0456,-0.0161,0
2668,0.0974,0.126,9.6874,-0.0048,0.0006,0.0295,0
2688,-0.0937,0.1339,9.9661,-0.0145,-0.0067,0.0028,0
2709,-0.0188,0.2748,9.8666,0.0192,0.0074,-0.0012,0
2729,-0.096,0.0156,9.654,-0.0261,-0.0121,-0.008,0
2749,-0.1896,0.0139,10.0173,0.0314,0.0642,0.0015,0
2769,0.1253,0.2016,9.755,-0.021,0.0046,0.0113,0
2789,-0.0609,0.378,10.0289,0.004,-0.0118,-0.0558,0
2809,-0.002,0.4051,9.9023,-0.0099,0.0328,-0.0179,0
2829,-0.1047,0.2218,9.9541,-0.0302,0.0521,-0.032,0
2849,-0.0157,0.4402,9.5975,0.0023,0.0211,-0.0193,0
2869,-0.0577,0.2061,9.7478,0.0023,-0.0344,-0.0299,0
2889,0.063,0.4515,9.9037,0.0495,-0.0233,0.0112,0
2909,0.0193,0.253,9.7218,-0.0294,0.0007,-0.0268,0
2929,-0.0064,0.2336,9.7372,0.0188,0.0213,0.036,0
2949,0.0069,0.3407,9.6979,-0.002,-0.0204,0.0779,0
2969,-0.0498,0.1755,9.8352,0.0264,0.0231,0.0033,0
2989,-0.0033,-0.0435,9.8658,0.0136,0.0332,0.0364,0
3010,0.137,0.2298,10.0234,0.0209,0.0109,-0.001,0
3030,-0.1324,0.3321,9.745,0.0065,0.023,0.0161,0
3050,-0.1277,0.4368,9.6836,0.0189,-0.0612,0.0059,0
3070,0.0241,0.4104,9.6178,0.0105,0.001,0.0567,0
3090,0.1511,0.2363,9.6396,-0.0468,0.0037,-0.0206,0
3110,-0.1437,0.3937,9.6366,0.0437,-0.0436,0.0254,0
3130,-0.2617,0.5271,9.53,0.0048,-0.001,0.0192,0
3150,-0.1361,0.0861,9.937,0.0377,0.0343,-0.0111,0
3170,0.1689,0.4314,9.8011,0.0232,0.002,0.009,0
3190,-0.1017,0.1308,9.9668,-0.0212,-0.0492,-0.0133,0
3210,-0.0174,1.0362,9.4412,0.0459,0.0765,-0.0476,1
3230,0.0211,2.5013,9.1437,-0.0395,0.2065,-0.0313,1
3250,0.1548,4.0323,8.5268,-0.0271,0.3485,-0.0229,1
3270,0.1774,5.5306,7.9316,-0.0401,0.4442,-0.0003,1
3290,-0.0904,7.1886,7.5515,-0.0016,0.5762,0.0135,1
3311,-0.0842,8.4317,6.7023,-0.0177,0.7203,-0.0674,1
3331,0.0794,10.093,6.5443,0.0304,0.7855,-0.0044,1
3351,0.0357,11.2173,6.1494,-0.015,0.9421,-0.0067,1
3371,-0.235,12.6215,5.3986,-0.0335,1.0186,0.0033,1
3391,-0.0711,14.041,5.4563,0.0013,1.119,0.007,1
3411,-0.1848,15.4567,4.8365,0.0076,1.2265,0.0313,1
3431,-0.0237,16.6629,4.2649,-0.0056,1.3403,-0.0334,1
3451,0.1629,18.2422,4.0056,-0.0014,1.5085,-0.0264,1
3471,0.0474,19.1105,3.6953,0.0064,1.5305,-0.0344,1
3491,0.0805,20.4177,3.3501,0.0158,1.7064,-0.0285,1
3511,-0.2383,21.2824,2.7138,-0.0266,1.7385,-0.0161,1
3531,0.1611,22.3038,2.3402,-0.0333,1.8628,-0.0458,1
3551,-0.1612,23.3907,2.0946,-0.0654,1.9398,-0.0195,1
3571,-0.1511,24.159,2.0758,0.0043,1.9544,0.0141,1
3591,0.1575,25.3822,1.6226,0.0111,2.1021,0.0361,1
3612,-0.0613,25.9176,1.6155,0.0582,2.0937,-0.025,1
3632,0.1009,26.4694,1.2519,0.0018,2.1879,0.0453,1
3652,-0.0235,27.1222,0.9996,0.0091,2.1661,-0.0095,1
3672,0.0515,27.6251,0.8524,0.0324,2.248,-0.0188,1
3692,-0.0847,28.2477,1.0441,0.0297,2.3315,-0.0207,1
3712,0.1369,28.4261,0.5126,-0.0503,2.335,-0.024,1
3732,0.0714,28.6347,0.5794,0.0162,2.4026,0.0473,1
3752,0.0829,28.9252,0.5809,-0.0041,2.3845,-0.0368,1
3772,0.141,29.2902,0.4583,-0.0203,2.3712,-0.0246,1
3792,-0.1944,29.1379,0.4542,-0.0166,2.4119,0.0262,1
3812,0.1645,29.017,0.0313,0.0141,2.3593,0.0363,1
3832,0.0495,29.116,0.3905,0.0133,2.3847,0.0236,1
3852,-0.1356,28.8909,0.1106,0.0302,2.3978,0.0321,1
3872,-0.1209,28.8539,0.5236,-0.0062,2.367,-0.0217,1
3892,-0.1478,28.4004,0.6089,-0.0032,2.375,-0.011,1
3913,-0.167,28.0608,0.8032,-0.015,2.306,-0.0037,1
3933,-0.053,27.4783,1.0263,-0.0077,2.2138,0.0223,1
3953,-0.06,26.9866,0.8282,-0.0322,2.25,-0.0185,1
3973,-0.0262,26.48,1.337,-0.0161,2.1777,-0.0034,1
3993,0.0746,25.6158,1.4861,-0.0105,2.1134,0.0123,1
4013,-0.1047,25.0629,1.8413,-0.0232,2.0282,0.0345,1
4033,-0.1767,23.9679,1.8824,-0.012,1.9538,-0.0296,1
4053,0.0323,23.2547,2.3048,0.015,1.8531,0.0156,1
4073,-0.2081,21.9687,2.6989,-0.0431,1.7941,0.0155,1
4093,0.1987,21.1613,2.9537,-0.0262,1.7508,0.0369,1
4113,0.0937,19.7851,3.5217,-0.0195,1.6539,0.0051,1
4133,0.0889,18.9172,3.5694,0.0082,1.5628,-0.0107,1
4153,-0.1384,17.7928,4.3566,-0.0333,1.4373,-0.0294,1
4173,-0.1249,16.3436,4.4146,-0.0146,1.3302,0.0134,1
4193,0.1394,15.3168,5.0719,0.0164,1.2328,0.0216,1
4214,-0.0434,13.7553,5.2106,-0.0013,1.0876,0.0507,1
4234,-0.0247,12.6282,5.7313,-0.0052,0.9811,-0.0369,1
4254,0.0432,10.8868,6.2356,0.0064,0.874,-0.0069,1
4274,-0.2831,9.6033,6.9285,-0.0293,0.7999,-0.0758,1
4294,0.0437,8.3111,7.4593,0.0152,0.6961,0.0101,1
4314,0.1133,6.6663,7.3876,-0.0035,0.5894,0.0246,1
4334,-0.0605,5.1408,8.4951,0.0062,0.371,-0.0034,1
4354,-0.171,3.508,8.5284,0.0098,0.2876,-0.053,1
4374,-0.0824,2.3638,9.1979,0.051,0.1359,-0.0331,1
4394,-0.0787,0.6272,9.6918,-0.0465,0.081,0.0055,1
4414,-0.2299,0.2422,9.776,-0.0289,-0.0076,-0.0136,1
4434,-0.0129,0.322,9.9552,-0.0037,0.0159,0.0353,1
4454,-0.0256,0.3412,9.9854,-0.0285,-0.0283,-0.0318,1
4474,-0.1264,0.4809,9.9507,0.0324,-0.0005,-0.0336,1
4494,-0.0335,0.3142,9.7254,0.0178,-0.0249,-0.0136,1
4515,0.0584,0.1853,9.7054,-0.0221,-0.0044,-0.0224,1
4535,0.2244,0.1351,9.5364,0.0325,0.0085,-0.0123,1
4555,-0.0623,0.2575,9.9862,0.0191,0.0154,-0.0147,1
4575,-0.1749,0.1969,10.0838,-0.0066,0.0387,-0.0224,1
4595,-0.0911,0.2043,9.1373,-0.0233,0.0381,0.0106,1
4615,-0.1142,0.1354,9.8416,-0.0071,0.015,-0.0051,1
4635,0.0265,0.2217,9.9317,0.0264,-0.0014,-0.0398,1
4655,-0.0408,0.4404,9.7443,-0.0213,-0.0279,0.026,1
4675,0.2287,0.3134,9.7569,0.0269,0.0029,0.0109,1
4695,-0.2186,0.1533,9.8403,0.0173,-0.0177,-0.041,1
4715,0.2413,0.4303,10.0568,-0.0051,0.0357,0.0487,1
4735,0.0481,0.2722,9.72,-0.0064,0.0461,-0.0155,1
4755,-0.1226,0.2139,9.9841,0.0234,0.0022,-0.0042,1
4775,0.2698,0.304,9.7345,0.0233,-0.0224,-0.0216,1
4795,0.1715,0.3288,9.9884,-0.0285,-0.0326,-0.027,1
4816,0.1141,0.0666,9.5461,0.018,0.0119,0.0203,1
4836,0.254,-0.0507,9.9392,-0.0164,0.0344,-0.0297,1
4856,0.1783,0.2659,9.814,0.0008,0.0168,0.093,1
4876,0.0719,0.1791,9.6774,-0.023,-0.005,-0.0268,1
4896,0.0171,0.0684,9.5654,0.0096,0.0277,0.0043,1
4916,0.0302,0.3753,9.7585,-0.0227,0.0094,0.0163,1
4936,0.0313,0.3332,9.8111,0.009,0.0408,0.0305,1
4956,-0.1058,0.0766,9.9935,-0.0209,0.0006,-0.0164,1
4976,0.0061,0.3214,9.8971,0.0009,0.0163,0.0276,1
4996,-0.1204,0.237,9.5669,0.0253,-0.0191,-0.0262,1
5016,0.08,-0.0203,9.8067,0.0041,0.0518,-0.0137,1
5036,0.2245,0.2363,9.789,-0.033,0.0085,0.041,1
5056,0.0801,0.1986,9.8793,-0.0316,0.0132,0.0373,1
5076,-0.0894,0.1482,9.9926,0.0201,-0.0062,-0.0,1
5096,0.2204,0.1848,10.0568,0.0114,-0.0137,-0.0065,1
5117,-0.1953,0.2723,9.8589,0.0253,0.0497,0.0281,1
5137,0.0376,0.2268,9.7012,0.0103,0.0187,0.0515,1
5157,0.0201,0.3598,9.659,0.0177,-0.021,0.0224,1
5177,0.0246,0.375,9.6851,-0.0196,-0.0412,0.0102,1
5197,-0.0207,0.2765,9.7825,-0.0091,-0.0105,0.0057,1
5217,0.1491,0.0889,10.0403,0.0077,0.0075,0.0225,1
5237,0.177,0.3234,9.5866,0.0106,-0.0022,-0.0337,1
5257,-0.2404,0.2105,10.0819,0.0442,-0.0358,-0.0137,1
5277,-0.0769,0.2936,10.0269,-0.017,-0.0003,-0.0164,1
5297,0.0162,0.2534,9.7203,-0.021,-0.0314,-0.0199,1
5317,-0.0167,0.1875,9.3968,0.0255,0.0215,0.0063,1
5337,0.3403,0.2692,9.817,0.008,0.0348,0.0496,1
5357,-0.3664,0.2988,9.6647,0.0309,-0.0657,-0.0223,1
5377,0.0391,0.1345,9.4602,-0.0032,-0.0088,-0.0264,1
5397,0.0517,0.1867,9.9438,-0.0527,-0.0186,0.0514,1
5418,-0.0065,0.1384,9.8407,-0.0288,-0.0432,-0.0164,1
5438,0.1029,0.4599,10.0835,0.0014,0.0242,0.0076,1
5458,0.0045,0.3644,9.6972,0.0334,-0.0627,-0.0299,1
5478,0.1147,-0.0561,9.6633,-0.0019,0.0421,-0.0351,1
5498,0.2427,0.0687,9.5498,0.0393,-0.0115,0.0167,1
5518,-0.1666,0.4137,10.2623,-0.0099,0.033,-0.0281,1
5538,0.2046,0.0227,9.6916,-0.0144,-0.0248,0.0042,1
5558,-0.0075,0.5353,9.7015,-0.0378,-0.0125,0.015,1
5578,-0.1247,0.1854,9.8402,-0.025,0.0161,0.0207,1
5598,-0.198,0.2203,9.5822,0.0328,-0.0448,0.0236,1
5618,-0.2739,0.2354,9.9481,0.0284,0.0169,0.0513,1
5638,-0.0626,0.3819,9.9942,-0.012,-0.0001,0.02,1
5658,0.0594,0.035,9.5831,0.0496,0.0013,0.0088,1
5678,-0.0742,-0.0685,10.1648,0.0455,-0.0241,-0.0117,1
5698,0.0606,0.0579,10.2408,-0.0315,-0.0035,0.031,1
5719,0.0201,0.3742,10.0879,-0.0702,0.0442,-0.0149,1
5739,-0.2246,0.2774,9.7341,-0.0007,-0.0233,0.0069,1
5759,0.0832,0.2758,9.7922,-0.0071,0.0458,0.0064,1
5779,0.1975,0.2156,9.4018,0.0174,-0.0181,-0.0138,1
5799,0.0697,0.0356,9.5763,-0.0004,0.0315,-0.0247,1
5819,0.1593,0.2755,9.6902,0.0232,-0.0182,0.0447,1
5839,0.0555,-0.0818,10.1081,0.0651,-0.0337,-0.0226,1
5859,0.1581,0.0016,10.2029,0.0445,0.0332,0.0155,1
5879,-0.1438,0.1494,9.8172,0.0204,0.0394,0.0335,1
5899,0.2375,0.1314,9.8847,-0.014,-0.0331,-0.0045,1
5919,-0.1905,0.2378,9.744,-0.0118,0.0035,-0.0044,1
5939,-0.2177,0.1841,9.883,-0.0162,0.0415,0.013,1
5959,-0.0085,0.2093,9.7061,-0.0598,-0.0175,-0.0077,1
5979,0.05,0.1162,9.7305,-0.0145,-0.0103,-0.0182,1
6000,-0.007,0.2376,9.9931,0.0083,0.0161,0.011,1
