timestamp_ms,ax,ay,az,gx,gy,gz,label
0,-0.0326,-0.3047,9.5368,-0.0073,0.0004,0.0705,0
20,0.1146,-0.2505,9.8097,0.0102,0.0416,-0.0077,0
40,-0.1363,0.0508,9.8079,0.008,0.0139,-0.0447,0
60,-0.0131,-0.0242,9.919,0.0196,-0.0104,0.0057,0
80,0.1714,0.0108,9.7906,-0.0239,0.0243,0.0218,0
100,-0.1162,0.0816,9.608,0.0307,-0.0412,-0.0109,0
120,0.0989,0.153,9.7237,0.0211,0.0221,0.0015,0
140,0.0199,-0.1439,9.9683,-0.0087,-0.0073,0.0368,0
160,0.01,0.0123,9.5265,-0.0037,0.0077,0.0038,0
180,-0.0765,0.0892,9.7511,0.0601,0.0293,0.0111,0
200,0.2003,-0.0449,9.8112,0.0506,-0.0125,-0.0219,0
220,-0.3,0.1615,9.9248,-0.004,0.0023,0.008,0
240,-0.0645,-0.0918,9.6618,-0.0033,-0.0302,0.0078,0
260,0.033,-0.003,9.9057,0.02,-0.0067,0.0508,0
280,-0.0006,-0.1336,9.5668,-0.0304,0.0636,-0.0217,0
301,0.1448,0.2439,10.2015,0.0038,-0.031,-0.0127,0
321,-0.1617,0.0356,9.6196,0.0016,-0.0178,0.0304,0
341,-0.1165,-0.0954,9.8651,0.0291,0.0056,0.0078,0
361,-0.0189,0.0346,9.9159,0.001,-0.0582,0.0266,0
381,-0.0661,-0.0013,9.8107,0.051,-0.002,0.0069,0
401,-0.1205,-0.0818,9.9643,-0.0131,-0.022,0.0045,0
421,-0.1095,0.0775,9.888,0.0053,-0.0048,-0.0067,0
441,-0.1035,0.137,10.122,0.0003,-0.0013,0.0085,0
461,-0.0831,0.0763,9.632,0.0404,-0.01,0.028,0
481,0.108,0.1142,9.2914,0.0663,0.002,-0.0107,0
501,-0.0475,0.0011,9.9508,0.0088,-0.0157,-0.0249,0
521,-0.1632,0.2312,9.7962,-0.0443,0.0488,-0.0009,0
541,-0.1223,-0.0188,9.7756,0.0362,-0.0371,-0.0177,0
561,-0.2051,0.1156,9.8626,-0.0171,0.0069,0.0707,0
581,-0.0198,-0.0403,9.7069,0.0122,0.0168,-0.015,0
602,-0.1674,0.1479,9.9677,0.0267,0.0686,-0.0146,0
622,0.1501,0.0153,9.8749,-0.003,-0.0007,-0.0089,0
642,-0.1216,0.0962,9.6806,-0.0032,-0.0177,0.0253,0
662,0.2587,0.2142,10.074,0.0219,0.0087,-0.0077,0
682,-0.1744,0.1184,9.77,-0.0048,-0.0037,0.0056,0
702,-0.193,-0.0975,9.774,0.0233,0.0026,0.039,0
722,-0.2614,-0.0185,9.8192,0.0131,-0.0103,0.0263,0
742,-0.0787,0.0537,9.5862,0.001,-0.0192,0.0179,0
762,0.1248,-0.1309,9.7087,-0.0239,-0.0579,-0.0034,0
782,-0.2223,0.0242,9.6461,0.0251,-0.0163,-0.0511,0
802,-0.1417,-0.0957,9.8705,0.0051,-0.0221,0.0373,0
822,0.2527,-0.1274,9.5383,-0.0035,0.0266,-0.0067,0
842,-0.1362,-0.1094,9.957,0.0306,0.0253,0.0203,0
862,-0.0233,-0.065,10.123,0.001,-0.0043,-0.0164,0
882,-0.1441,0.0988,9.7402,0.0051,-0.0323,-0.0037,0
903,-0.185,0.4389,9.6718,-0.0122,-0.0387,0.0052,0
923,-0.1363,0.1042,9.3431,-0.0239,0.0485,-0.0012,0
943,0.1164,-0.0014,9.734,-0.0111,-0.0086,-0.0037,0
963,-0.1725,0.2718,9.4785,0.0162,-0.0092,0.0203,0
983,0.0401,0.2093,9.9834,0.0351,0.0074,0.0359,0
1003,0.0926,0.0878,9.8101,0.0312,-0.0164,-0.004,0
1023,-0.0677,0.0505,10.2105,-0.0759,-0.0016,0.0021,0
1043,-0.2464,0.1681,9.882,0.0276,-0.0138,0.0277,0
1063,0.022,-0.2433,9.6621,0.0183,0.0133,-0.002,0
1083,-0.2606,0.084,9.8994,0.0284,0.039,0.0049,0
1103,-0.2103,0.1975,9.7066,0.0148,-0.0251,0.0002,0
1123,0.269,0.2368,9.948,-0.0286,0.0164,-0.0118,0
1143,0.075,-0.1172,9.6394,0.0371,0.0175,-0.0189,0
1163,0.1585,0.023,9.7366,-0.0052,0.0617,-0.0424,0
1183,0.3128,-0.0476,9.9134,-0.0295,-0.0031,0.0058,0
1204,0.0729,0.396,9.8719,0.0163,-0.0222,0.0252,0
1224,0.2909,0.3274,10.0815,0.0175,0.0039,0.0099,0
1244,-0.1111,0.2416,9.5392,-0.037,-0.0207,-0.0151,0
1264,0.0382,0.086,9.7623,0.0295,0.0031,-0.0106,0
1284,-0.1594,-0.1185,9.7412,0.0397,0.0011,0.0346,0
1304,0.1362,0.0873,9.707,-0.02,-0.0053,-0.0453,0
1324,-0.0511,0.0192,9.5063,0.0212,0.0233,0.0083,0
1344,0.0119,0.0978,9.486,0.0158,-0.0339,0.0364,0
1364,-0.0546,0.2898,10.2954,-0.0005,-0.0284,0.0117,0
1384,-0.1941,0.1103,10.1549,0.0065,-0.0182,0.0483,0
1404,0.1016,0.077,9.8141,-0.0416,0.0328,0.006,0
1424,-0.2442,-0.0334,9.4097,0.0348,-0.0187,0.0168,0
1444,-0.0548,0.1153,9.8415,0.032,-0.0026,-0.0291,0
1464,-0.1004,0.0893,9.9283,0.0023,-0.0164,0.0093,0
1484,-0.0081,0.1376,9.7974,0.0283,-0.0381,0.0067,0
1505,0.003,-0.0169,9.6758,-0.0314,0.0163,-0.0067,0
1525,0.129,0.2689,9.8351,-0.0109,-0.0225,0.0368,0
1545,0.112,0.2293,10.0224,0.0566,0.0221,0.0308,0
1565,0.0008,0.0673,9.9369,-0.036,-0.0378,-0.0188,0
1585,-0.216,0.0832,9.7545,-0.0237,-0.0214,0.0095,0
1605,0.0919,0.1707,9.6125,0.0282,-0.0013,-0.0111,0
1625,-0.048,0.4221,9.9473,-0.0313,-0.0069,0.0151,0
1645,0.0461,0.2847,10.0212,0.0181,-0.0142,-0.0261,0
1665,-0.0476,0.0737,9.8682,-0.0067,-0.0009,0.0207,0
1685,-0.1264,0.2547,9.781,-0.0226,-0.025,0.0462,0
1705,0.1386,0.0827,10.0295,0.0104,0.0053,0.004,0
1725,0.2345,0.1193,9.5138,-0.0291,0.0145,-0.033,0
1745,0.045,-0.0056,9.948,0.0165,-0.0494,-0.0509,0
1765,-0.1756,0.0133,9.7487,0.0212,-0.0034,0.0039,0
1785,-0.0981,0.3698,9.7634,0.033,0.0219,0.017,0
1806,0.0963,-0.0884,9.5194,0.0339,0.0243,-0.0138,0
1826,-0.0476,0.0777,10.0448,-0.0358,-0.008,-0.0512,0
1846,-0.0954,0.0503,9.8098,0.0332,-0.0361,-0.0191,0
1866,0.2024,0.099,9.9047,-0.0214,0.0022,0.0077,0
1886,-0.0929,0.1179,9.6746,-0.0007,0.0029,-0.0038,0
1906,-0.3009,0.107,9.9966,-0.0314,-0.0136,0.0018,0
1926,-0.1295,-0.0696,9.6717,-0.0259,0.0086,0.0216,0
1946,-0.0113,0.5107,9.7385,0.0405,0.0334,0.017,0
1966,0.0433,0.3114,9.8737,-0.0047,-0.0064,-0.0026,0
1986,0.2434,0.1747,9.8966,-0.0349,0.0614,0.0429,0
2006,-0.0448,0.1128,9.9247,0.0555,0.0137,-0.0085,0
2026,-0.02,0.1982,9.8518,0.0128,0.0132,0.0509,0
2046,0.3021,0.235,9.692,-0.075,-0.0017,0.0276,0
2066,0.1869,0.1166,9.6875,-0.0086,-0.0256,0.0583,0
2086,0.5181,0.3219,9.9746,0.0096,0.0714,0.0919,0
2107,0.3807,0.2557,10.1971,-0.0169,-0.0187,0.1026,0
2127,0.2673,0.0378,9.5357,0.0478,-0.011,0.1345,0
2147,0.5763,0.1309,9.9976,-0.0104,-0.0209,0.1025,0
2167,0.8827,0.2911,9.6799,-0.0406,-0.0015,0.133,0
2187,0.9667,0.2972,10.136,-0.0007,-0.0547,0.1475,0
2207,0.8187,0.189,9.4844,-0.0214,-0.016,0.1766,0
2227,0.7821,0.2411,10.0198,-0.0196,-0.007,0.263,0
2247,0.5412,0.1581,9.7286,-0.0162,-0.0302,0.2044,0
2267,1.1764,0.2327,10.0177,-0.0836,0.0525,0.2447,0
2287,1.1626,0.3682,9.7534,-0.0172,-0.0006,0.275,0
2307,1.4582,0.2125,9.8056,0.0318,-0.0256,0.263,0
2327,1.3147,-0.0974,10.2088,0.0239,-0.0311,0.2767,0
2347,1.4159,0.2663,9.6555,-0.0051,0.0407,0.3468,0
2367,1.3147,0.3048,10.0012,-0.0172,-0.0051,0.3398,0
2387,1.4432,0.2764,9.5748,-0.0038,0.0451,0.3887,0
2408,1.596,0.3256,10.1601,-0.0302,-0.0145,0.3648,0
2428,1.4413,0.502,10.0889,-0.014,-0.0102,0.3967,0
2448,1.8382,0.3388,9.8295,0.0225,-0.0213,0.4183,0
2468,1.7931,0.2735,9.7154,-0.0044,-0.0019,0.4063,0
2488,1.9135,-0.1062,9.6557,-0.0315,0.0238,0.44,0
2508,1.8594,0.3577,9.7771,-0.0168,0.0338,0.3873,0
2528,1.9638,0.2131,9.6833,-0.0242,-0.0261,0.4649,0
2548,2.179,0.2464,9.7949,-0.0139,-0.0072,0.4898,0
2568,2.0461,0.5096,9.6891,-0.0333,0.0,0.4743,0
2588,2.0945,0.054,9.7739,-0.0168,-0.0276,0.4508,0
2608,1.8075,0.3969,9.7432,0.003,0.0639,0.5198,0
2628,2.2175,0.4219,9.7672,-0.0104,-0.0416,0.5099,0
2648,2.1148,0.4116,9.9978,0.0267,0.0218,0.5199,0
2668,2.0911,0.1946,10.2067,-0.0074,0.0098,0.5354,0
2688,2.4569,0.2201,10.0037,0.0114,0.0139,0.5841,0
2709,2.5682,0.3309,9.3747,-0.0492,-0.0273,0.5592,0
2729,2.5202,0.2832,9.5638,0.0655,0.0022,0.5881,0
2749,2.6729,0.2005,9.7738,-0.0,0.0145,0.6072,0
2769,2.773,0.1895,9.6392,-0.0365,0.0424,0.5458,0
2789,2.5047,0.4647,9.974,0.0132,0.0009,0.6102,0
2809,2.5075,0.1749,9.856,0.003,-0.0045,0.5691,0
2829,2.8089,0.2193,9.964,0.0157,-0.0039,0.6174,0
2849,2.8938,-0.0337,9.6355,0.0217,0.0046,0.6107,0
2869,2.5285,0.3479,9.9394,0.0146,0.0201,0.5807,0
2889,2.4595,0.2398,9.9755,-0.0185,-0.0011,0.6358,0
2909,2.6696,0.0451,9.4097,0.0108,0.009,0.6367,0
2929,2.8075,0.3339,9.6796,-0.0209,0.0001,0.6554,0
2949,2.6135,0.2318,9.9593,0.0107,-0.0212,0.616,0
2969,2.7454,0.2391,9.9707,0.0351,0.0315,0.6732,0
2989,2.7817,0.0835,9.5261,0.0116,0.0416,0.6934,0
3010,2.7826,0.3374,9.9421,-0.002,-0.0175,0.6372,0
3030,2.9103,0.0481,9.8364,-0.0258,0.0284,0.6701,0
3050,2.5985,0.5286,10.0273,-0.0604,0.011,0.6368,0
3070,2.8125,-0.0161,9.771,-0.0017,-0.0204,0.6605,0
3090,2.8163,0.1224,10.0975,0.0339,-0.0675,0.6408,0
3110,2.9556,0.2113,10.1023,0.0097,-0.0334,0.6625,0
3130,2.4482,0.2375,9.8508,-0.0205,0.0347,0.6631,0
3150,2.7663,0.0617,10.0391,0.0316,-0.0077,0.633,0
3170,2.8271,0.1686,9.4349,0.044,-0.0006,0.6635,0
3190,2.7216,0.3838,10.0151,0.016,-0.0079,0.702,0
3210,2.7273,0.3266,9.3247,0.0103,0.0309,0.6618,0
3230,2.6625,0.2878,10.0037,-0.0152,0.0164,0.6322,0
3250,2.7377,0.229,9.9848,-0.0269,-0.0326,0.6326,0
3270,2.818,0.2844,9.8486,0.0013,0.011,0.621,0
3290,2.4526,0.3224,9.8132,-0.0505,0.0039,0.6241,0
3311,2.7315,0.1405,9.5233,0.0259,-0.0022,0.6264,0
3331,2.4557,0.6289,9.7066,0.0218,-0.0209,0.6357,0
3351,2.4826,0.3835,9.7235,0.047,0.004,0.6253,0
3371,2.5602,0.2109,9.6739,-0.0337,0.0049,0.6301,0
3391,2.4417,0.1739,9.7889,0.017,-0.0081,0.5622,0
3411,2.7397,0.1023,9.7519,0.0409,0.0243,0.5015,0
3431,2.2902,0.1783,9.9535,0.0131,0.008,0.5873,0
3451,2.5533,0.1528,9.8746,-0.0218,0.0392,0.5312,0
3471,2.2488,0.3735,9.8007,-0.0275,-0.0139,0.5875,0
3491,2.5835,0.3668,9.7869,0.0125,0.0098,0.5456,0
3511,2.4277,0.3501,9.724,0.0356,-0.0138,0.5649,0
3531,1.947,0.2333,9.5006,0.0057,-0.0216,0.5813,0
3551,2.1883,0.0267,9.7261,0.031,-0.0084,0.4928,0
3571,2.2007,0.2649,9.751,0.0295,0.015,0.5207,0
3591,1.9074,0.4229,9.7424,0.0097,0.049,0.5303,0
3612,2.2683,0.1625,9.9268,-0.0204,-0.0364,0.4598,0
3632,1.8178,0.2419,9.6077,0.0488,0.0295,0.4627,0
3652,1.8017,0.5131,9.8038,0.0159,0.0103,0.4664,0
3672,1.7829,0.373,9.9223,0.0004,0.0068,0.3988,0
3692,1.8845,0.2916,9.7,0.043,-0.0369,0.4225,0
3712,1.7093,0.2113,9.7312,0.0219,-0.0008,0.4176,0
3732,1.4879,0.1718,9.692,-0.0038,-0.0381,0.4154,0
3752,1.4043,0.2208,9.9949,-0.0295,0.0221,0.4228,0
3772,1.2649,-0.0558,10.0613,0.0016,-0.0083,0.3683,0
3792,1.2727,0.1531,9.5676,0.0387,0.024,0.4083,0
3812,1.1794,0.1681,9.5939,-0.002,-0.0252,0.3237,0
3832,1.6455,0.001,9.984,0.0024,-0.02,0.3248,0
3852,1.4095,0.2224,9.5248,-0.0359,-0.0027,0.271,0
3872,1.0232,0.3779,9.9265,0.0027,0.0172,0.2989,0
3892,0.9549,0.3876,9.6076,0.0044,0.056,0.2645,0
3913,1.0049,0.1837,9.7628,-0.0214,-0.0127,0.3157,0
3933,0.8766,0.2789,9.9247,-0.0033,-0.0195,0.2355,0
3953,1.1421,0.4616,9.7764,0.0066,-0.0189,0.2267,0
3973,0.6799,-0.027,10.0126,0.0329,-0.007,0.206,0
3993,0.7862,0.205,9.7204,0.0003,0.0541,0.173,0
4013,1.105,0.282,9.6866,-0.0309,0.0162,0.21,0
4033,0.6358,0.3716,9.7806,-0.0085,-0.0237,0.1462,0
4053,0.5389,0.3367,9.8722,0.0126,0.0032,0.1293,0
4073,0.7314,0.135,9.7094,-0.0027,-0.0025,0.1229,0
4093,0.2376,0.1619,9.9407,0.0034,-0.0076,0.1076,0
4113,0.0295,0.4003,9.7775,0.0025,0.0176,0.1061,0
4133,0.2665,0.407,9.506,-0.0543,-0.0122,0.0326,0
4153,-0.01,0.2289,10.0693,-0.0068,0.0069,0.0651,0
4173,0.0307,0.3379,9.8758,-0.002,-0.0144,0.0251,0
4193,0.1019,0.3871,9.6016,0.0367,0.0349,0.0202,0
4214,0.0899,0.0319,9.613,0.0644,-0.0114,-0.0013,0
4234,0.2863,0.2821,10.1313,-0.0333,0.0039,-0.0103,0
4254,0.0144,0.2205,10.1044,0.0033,-0.0179,-0.0235,0
4274,-0.1744,0.3731,9.6429,-0.0588,-0.0051,0.0013,0
4294,-0.2596,0.3679,9.7504,-0.0031,0.0214,0.0316,0
4314,-0.1632,0.5835,9.8644,-0.0091,-0.0496,-0.018,0
4334,0.0269,0.3105,9.8484,0.0326,-0.0414,-0.0457,0
4354,0.085,0.2126,9.9893,-0.0307,0.0391,-0.0021,0
4374,-0.1261,0.3497,9.7616,-0.0047,0.0012,-0.0253,0
4394,-0.0863,0.0201,9.6821,-0.0242,0.0484,-0.0297,0
4414,-0.0128,0.2509,9.8638,0.0197,-0.0016,0.0247,0
4434,-0.0408,0.2236,10.166,0.0231,-0.0216,0.0214,0
4454,0.0101,0.4727,9.8839,0.0141,-0.0226,0.0105,0
4474,0.0687,0.2711,9.8321,0.0353,0.0226,-0.0178,0
4494,-0.0263,0.3458,9.8901,0.0055,0.0077,-0.022,0
4515,0.1507,0.2964,9.4671,-0.0501,-0.028,0.0342,0
4535,0.2925,0.3503,9.9145,0.0091,-0.0176,0.0092,0
4555,-0.19,0.2046,9.6364,-0.0267,0.0003,-0.0116,0
4575,0.1807,0.1769,9.826,0.0072,0.0127,0.0364,0
4595,0.0931,0.0372,9.7029,-0.0412,-0.0292,-0.0075,0
4615,0.1536,0.261,10.0114,0.0076,-0.0128,-0.0167,0
4635,-0.1054,0.2989,9.8351,0.0137,-0.0241,0.0012,0
4655,0.0859,-0.0499,9.8755,0.0177,0.011,-0.034,0
4675,0.4003,0.3256,9.6449,0.0402,-0.0101,-0.0177,0
4695,0.0604,0.0281,9.704,0.0192,0.0362,-0.0231,0
4715,-0.2319,0.1905,9.596,-0.0194,-0.0243,0.0053,0
4735,0.1057,0.2919,10.0827,-0.0412,-0.0022,0.0715,0
4755,-0.0616,0.2766,10.2754,-0.0195,0.0263,-0.001,0
4775,0.198,0.1837,10.0017,-0.0159,0.0143,0.0174,0
4795,0.1293,0.4108,9.856,-0.0023,0.0131,-0.0298,0
4816,-0.0289,0.0756,9.6431,-0.0027,-0.0387,0.0124,0
4836,0.0013,0.306,10.2947,0.0404,0.0106,-0.0166,0
4856,0.2886,0.0717,9.9305,-0.0026,0.0395,-0.016,0
4876,-0.2573,0.2579,9.9305,0.0335,-0.0056,0.0162,0
4896,0.0459,0.2348,9.7288,0.0089,0.0225,-0.019,0
4916,-0.1166,0.2452,9.7342,0.0351,0.0123,-0.0211,0
4936,0.1929,-0.0264,9.6631,0.0033,0.0198,-0.0355,0
4956,-0.1298,0.4886,9.6588,-0.0061,0.0312,0.02,0
4976,-0.1882,0.0194,9.738,0.0274,-0.0276,-0.0184,0
4996,0.2585,0.2097,9.6693,-0.0358,0.0071,-0.0025,0
5016,0.0274,0.07,9.7262,0.0033,0.018,-0.0005,0
5036,-0.1773,0.1727,9.933,-0.0211,0.0315,0.0112,0
5056,-0.1324,0.415,9.9227,0.0174,0.0195,-0.0433,0
5076,0.081,-0.0385,9.8789,0.011,0.0343,-0.0266,0
5096,-0.0203,0.3965,9.8364,-0.0343,0.0431,0.0144,0
5117,-0.0563,0.0396,9.7821,0.02,-0.0388,-0.0058,0
5137,0.0138,0.4977,9.9019,0.0179,0.0171,-0.0026,0
5157,-0.4111,0.2608,9.7469,-0.0033,-0.0009,-0.0139,0
5177,0.2153,0.444,9.7498,0.0059,-0.0337,-0.0038,0
5197,0.0832,0.4961,9.8937,0.0038,-0.0207,0.0039,0
5217,-0.0985,0.0809,9.9806,-0.0615,0.0105,-0.0453,0
5237,0.069,0.1562,9.8709,-0.0105,0.0216,0.0014,0
5257,0.1357,0.1365,9.9526,-0.0106,-0.0113,0.0144,0
5277,0.1551,-0.1495,9.9086,0.0026,-0.0302,0.015,0
5297,0.0341,0.1788,9.808,-0.0261,-0.0066,0.0111,0
5317,-0.1325,0.0689,9.6956,-0.0026,-0.0122,-0.0039,0
5337,-0.2399,0.3394,9.9711,0.0196,-0.0044,0.0473,0
5357,0.1245,0.4514,9.6241,-0.0196,0.0002,0.0154,0
5377,0.1146,-0.02,9.9339,-0.0009,-0.019,0.0288,0
5397,0.0167,0.2517,9.9888,-0.01,-0.0251,-0.0199,0
5418,0.1078,0.2002,9.9722,0.0428,0.0079,-0.0175,0
5438,0.0358,0.2324,9.8502,0.0458,-0.0092,-0.0089,0
5458,0.0767,0.2685,9.8088,0.01,-0.0274,-0.0367,0
5478,-0.051,0.3787,9.8106,-0.0177,0.0304,0.0014,0
5498,-0.0662,0.2713,9.7911,0.0028,0.0101,0.0105,0
5518,0.2825,0.2822,9.8879,-0.0406,0.0095,-0.0198,0
5538,0.0319,0.3947,9.8046,0.0193,-0.045,-0.0275,0
5558,-0.1489,0.1824,9.5951,-0.019,0.0115,0.0137,0
5578,-0.0543,0.1627,10.1426,-0.0274,0.004,-0.0425,0
5598,0.2687,0.2592,9.6577,-0.0081,-0.0077,-0.0441,0
5618,0.0068,0.3802,9.7788,-0.0445,0.0203,0.0242,0
5638,-0.0584,0.1784,9.7108,-0.0268,-0.0098,0.0129,0
5658,-0.2506,0.1487,9.7285,-0.0098,-0.0092,0.031,0
5678,-0.1345,0.0997,9.5323,-0.0152,0.0195,-0.0014,0
5698,-0.1941,0.0737,9.9335,-0.0102,-0.0069,-0.0332,0
5719,0.0063,0.2056,9.8229,0.0382,-0.0302,0.0049,0
5739,0.1521,0.4051,9.5906,0.021,0.0056,-0.0219,0
5759,-0.1601,-0.0073,9.9582,0.0161,-0.008,0.0331,0
5779,0.1794,0.3769,10.0243,-0.0074,0.0366,-0.0031,0
5799,0.0047,0.2208,9.5987,0.0146,-0.0226,-0.0033,0
5819,0.2267,0.2154,9.5521,0.0184,-0.0177,-0.0331,0
5839,-0.0467,0.1327,9.7499,0.0178,-0.0117,0.009,0
5859,0.281,-0.0884,9.8776,-0.0338,0.0041,0.0004,0
5879,-0.1915,0.5098,9.8525,-0.0298,0.0052,-0.0024,0
5899,0.0202,-0.1037,9.9055,-0.0161,0.0275,0.0299,0
5919,-0.0776,0.2642,9.7532,0.0149,-0.0126,0.0183,0
5939,-0.0895,0.2142,9.6681,-0.0379,-0.0324,0.0374,0
5959,0.0396,0.4694,9.7577,0.0666,0.0412,0.0103,0
5979,-0.0829,0.1852,9.5968,-0.0239,-0.0585,0.0545,0
6000,-0.0216,0.3006,9.7337,0.0154,0.0032,0.0567,0
